ACCELEROMETER X (m/s²),ACCELEROMETER Y (m/s²),ACCELEROMETER Z (m/s²),LINEAR ACCELERATION X (m/s²),LINEAR ACCELERATION Y (m/s²),LINEAR ACCELERATION Z (m/s²),GYROSCOPE X (rad/s),GYROSCOPE Y (rad/s),GYROSCOPE Z (rad/s),Time since start in ms ,YYYY-MO-DD HH-MI-SS_SSS
-0.82,-0.77,9.96,0.02,-0.05,0.03,0.0,0.0,0.0,5,2019-04-29 17:34:16:473
-0.82,-0.77,9.96,0.02,-0.05,0.03,0.0,0.0,0.0,10,2019-04-29 17:34:16:478
-0.82,-0.77,9.96,0.02,-0.05,0.03,0.0,0.0,0.0,15,2019-04-29 17:34:16:483
-0.82,-0.77,9.96,0.02,-0.05,0.03,0.0,0.0,0.0,20,2019-04-29 17:34:16:488
-0.69,-0.65,9.89,0.02,-0.05,0.03,0.0,0.0,0.0,25,2019-04-29 17:34:16:493
-0.69,-0.65,9.89,0.14,0.05,-0.03,0.0,0.0,0.0,30,2019-04-29 17:34:16:498
-0.69,-0.65,9.89,0.14,0.05,-0.03,0.0,0.0,0.0,35,2019-04-29 17:34:16:503
-0.69,-0.65,9.89,0.14,0.05,-0.03,0.0,0.0,0.0,39,2019-04-29 17:34:16:507
-0.69,-0.65,9.89,0.14,0.05,-0.03,0.0,0.0,0.0,44,2019-04-29 17:34:16:512
-0.81,-0.67,9.85,0.0,0.04,-0.07,0.0,0.0,0.0,50,2019-04-29 17:34:16:518
-0.81,-0.67,9.85,0.0,0.04,-0.07,0.0,0.0,0.0,54,2019-04-29 17:34:16:522
-0.81,-0.67,9.85,0.0,0.04,-0.07,0.0,0.0,0.0,60,2019-04-29 17:34:16:528
-0.81,-0.7,9.99,0.01,0.0,0.06,0.0,0.0,0.0,65,2019-04-29 17:34:16:533
-0.81,-0.7,9.99,0.01,0.0,0.06,0.0,0.0,0.0,70,2019-04-29 17:34:16:538
-0.81,-0.7,9.99,0.01,0.0,0.06,0.0,0.0,0.0,75,2019-04-29 17:34:16:543
-0.81,-0.7,9.99,0.01,0.0,0.06,0.0,0.0,0.0,80,2019-04-29 17:34:16:548
-0.81,-0.7,9.99,0.01,0.0,0.06,0.0,0.0,0.0,85,2019-04-29 17:34:16:553
-0.81,-0.7,9.99,0.01,0.0,0.06,0.0,0.0,0.0,90,2019-04-29 17:34:16:558
-0.91,-0.63,9.91,-0.08,0.06,-0.02,0.0,0.0,0.0,94,2019-04-29 17:34:16:562
-0.91,-0.63,9.91,-0.08,0.06,-0.02,0.0,0.0,0.0,101,2019-04-29 17:34:16:569
-0.91,-0.63,9.91,-0.08,0.06,-0.02,0.0,0.0,0.0,105,2019-04-29 17:34:16:573
-0.91,-0.63,9.91,-0.08,0.06,-0.02,0.0,0.0,0.0,109,2019-04-29 17:34:16:577
-0.91,-0.63,9.91,-0.08,0.06,-0.02,0.0,0.0,0.0,115,2019-04-29 17:34:16:583
-0.91,-0.63,9.91,-0.08,0.06,-0.02,0.0,0.0,0.0,119,2019-04-29 17:34:16:587
-0.97,-0.62,9.95,-0.11,0.07,0.02,0.0,0.0,0.0,125,2019-04-29 17:34:16:593
-0.97,-0.62,9.95,-0.11,0.07,0.02,0.0,0.0,0.0,130,2019-04-29 17:34:16:598
-0.97,-0.62,9.95,-0.11,0.07,0.02,0.0,0.0,0.0,135,2019-04-29 17:34:16:603
-0.97,-0.62,9.95,-0.11,0.07,0.02,0.0,0.0,0.0,139,2019-04-29 17:34:16:607
-0.97,-0.62,9.95,-0.11,0.07,0.02,0.0,0.0,0.0,145,2019-04-29 17:34:16:613
-0.83,-0.58,9.87,0.01,0.1,-0.06,0.0,0.0,0.0,149,2019-04-29 17:34:16:617
-0.83,-0.58,9.87,0.01,0.1,-0.06,0.0,0.0,0.0,155,2019-04-29 17:34:16:623
-0.83,-0.58,9.87,0.01,0.1,-0.06,0.0,0.0,0.0,159,2019-04-29 17:34:16:627
-0.72,-0.66,10.03,0.11,0.01,0.09,0.0,0.0,0.0,165,2019-04-29 17:34:16:633
-0.72,-0.66,10.03,0.11,0.01,0.09,0.0,0.0,0.0,170,2019-04-29 17:34:16:638
-0.72,-0.66,10.03,0.11,0.01,0.09,0.0,0.0,0.0,175,2019-04-29 17:34:16:643
-0.72,-0.66,10.03,0.11,0.01,0.09,0.0,0.0,0.0,179,2019-04-29 17:34:16:647
-0.72,-0.66,10.03,0.11,0.01,0.09,0.0,0.0,0.0,185,2019-04-29 17:34:16:653
-0.69,-0.46,9.88,0.13,0.19,-0.04,0.0,0.0,0.0,194,2019-04-29 17:34:16:662
-0.69,-0.46,9.88,0.13,0.19,-0.04,0.0,0.0,0.0,195,2019-04-29 17:34:16:663
-0.69,-0.46,9.88,0.13,0.19,-0.04,0.0,0.0,0.0,200,2019-04-29 17:34:16:668
-0.69,-0.46,9.88,0.13,0.19,-0.04,0.01,0.0,0.01,204,2019-04-29 17:34:16:672
-0.69,-0.46,9.88,0.13,0.19,-0.04,0.01,0.0,0.01,209,2019-04-29 17:34:16:677
-0.69,-0.46,9.88,0.13,0.19,-0.04,0.01,0.0,0.01,215,2019-04-29 17:34:16:683
-0.69,-0.46,9.88,0.13,0.19,-0.04,0.01,0.0,0.01,219,2019-04-29 17:34:16:687
-0.71,-0.61,10.07,0.11,0.01,0.13,0.0,0.0,0.01,225,2019-04-29 17:34:16:693
-0.71,-0.61,10.07,0.11,0.01,0.13,0.0,0.0,0.01,229,2019-04-29 17:34:16:697
-0.71,-0.61,10.07,0.11,0.01,0.13,0.0,0.0,0.01,234,2019-04-29 17:34:16:702
-0.71,-0.61,10.07,0.11,0.01,0.13,0.0,0.0,0.01,239,2019-04-29 17:34:16:707
-0.73,-0.51,9.86,0.09,0.09,-0.08,0.01,0.0,0.01,244,2019-04-29 17:34:16:712
-0.73,-0.51,9.86,0.09,0.09,-0.08,0.01,0.0,0.01,250,2019-04-29 17:34:16:718
-0.73,-0.51,9.86,0.09,0.09,-0.08,0.01,0.0,0.01,254,2019-04-29 17:34:16:722
-0.73,-0.51,9.86,0.09,0.09,-0.08,0.01,0.0,0.01,261,2019-04-29 17:34:16:729
-0.82,-0.61,9.87,0.0,0.0,-0.07,0.0,0.0,0.01,265,2019-04-29 17:34:16:733
-0.82,-0.61,9.87,0.0,0.0,-0.07,0.0,0.0,0.01,269,2019-04-29 17:34:16:737
-0.82,-0.61,9.87,0.0,0.0,-0.07,0.0,0.0,0.01,274,2019-04-29 17:34:16:742
-0.82,-0.61,9.87,0.0,0.0,-0.07,0.0,0.0,0.01,280,2019-04-29 17:34:16:748
-0.82,-0.61,9.87,0.0,0.0,-0.07,0.0,0.0,0.01,284,2019-04-29 17:34:16:752
-0.82,-0.61,9.87,0.0,0.0,-0.07,0.0,0.0,0.01,289,2019-04-29 17:34:16:757
-0.95,-0.63,10.03,-0.11,-0.02,0.08,0.0,0.0,0.02,294,2019-04-29 17:34:16:762
-0.95,-0.63,10.03,-0.11,-0.02,0.08,0.0,0.0,0.02,300,2019-04-29 17:34:16:768
-0.95,-0.63,10.03,-0.11,-0.02,0.08,0.0,0.0,0.02,305,2019-04-29 17:34:16:773
-0.95,-0.63,10.03,-0.11,-0.02,0.08,0.0,0.0,0.02,309,2019-04-29 17:34:16:777
-0.95,-0.63,10.03,-0.11,-0.02,0.08,0.0,0.0,0.02,314,2019-04-29 17:34:16:782
-0.95,-0.63,10.03,-0.11,-0.02,0.08,0.0,0.0,0.02,319,2019-04-29 17:34:16:787
-0.96,-0.7,9.83,-0.14,-0.09,-0.1,0.0,0.0,0.02,324,2019-04-29 17:34:16:792
-0.96,-0.7,9.83,-0.14,-0.09,-0.1,0.0,0.0,0.02,329,2019-04-29 17:34:16:797
-0.96,-0.7,9.83,-0.14,-0.09,-0.1,0.0,0.0,0.02,335,2019-04-29 17:34:16:803
-0.96,-0.7,9.83,-0.14,-0.09,-0.1,0.0,0.0,0.02,339,2019-04-29 17:34:16:807
-0.96,-0.7,9.83,-0.14,-0.09,-0.1,0.0,0.0,0.02,344,2019-04-29 17:34:16:812
-0.96,-0.7,9.83,-0.14,-0.09,-0.1,0.0,0.0,0.02,349,2019-04-29 17:34:16:817
-0.95,-0.62,10.04,-0.12,-0.01,0.1,0.0,0.0,0.02,354,2019-04-29 17:34:16:822
-0.95,-0.62,10.04,-0.12,-0.01,0.1,0.0,0.0,0.02,359,2019-04-29 17:34:16:827
-0.95,-0.62,10.04,-0.12,-0.01,0.1,0.0,0.0,0.02,365,2019-04-29 17:34:16:833
-0.95,-0.62,10.04,-0.12,-0.01,0.1,0.0,0.0,0.02,369,2019-04-29 17:34:16:837
-0.79,-0.58,9.87,0.03,0.01,-0.05,0.0,0.0,0.02,374,2019-04-29 17:34:16:842
-0.79,-0.58,9.87,0.03,0.01,-0.05,0.0,0.0,0.02,379,2019-04-29 17:34:16:847
-0.85,-0.61,9.91,0.03,0.01,-0.05,0.0,0.0,0.02,384,2019-04-29 17:34:16:852
-0.85,-0.61,9.91,0.0,0.07,-0.07,0.0,0.0,0.02,390,2019-04-29 17:34:16:858
-0.85,-0.61,9.91,0.0,0.07,-0.07,0.0,0.0,0.02,394,2019-04-29 17:34:16:862
-0.85,-0.61,9.91,0.0,0.07,-0.07,0.0,0.0,0.02,399,2019-04-29 17:34:16:867
-0.85,-0.61,9.91,0.0,0.07,-0.07,0.0,0.0,0.02,405,2019-04-29 17:34:16:873
-0.85,-0.61,9.91,0.0,0.07,-0.07,0.0,0.0,0.02,409,2019-04-29 17:34:16:877
-0.71,-0.53,9.91,0.12,0.07,0.0,0.0,0.0,0.02,415,2019-04-29 17:34:16:883
-0.71,-0.53,9.91,0.12,0.07,0.0,0.0,0.0,0.02,419,2019-04-29 17:34:16:887
-0.71,-0.53,9.91,0.12,0.07,0.0,0.0,0.0,0.02,424,2019-04-29 17:34:16:892
-0.71,-0.53,9.91,-0.14,-0.03,0.03,0.0,0.0,0.02,430,2019-04-29 17:34:16:898
-0.71,-0.53,9.91,-0.14,-0.03,0.03,0.0,0.0,0.02,434,2019-04-29 17:34:16:902
-0.71,-0.53,9.91,-0.14,-0.03,0.03,0.0,0.0,0.02,439,2019-04-29 17:34:16:907
-0.71,-0.53,9.91,-0.14,-0.03,0.03,0.0,0.0,0.02,445,2019-04-29 17:34:16:913
-0.71,-0.53,9.91,-0.14,-0.03,0.03,0.0,0.0,0.02,449,2019-04-29 17:34:16:917
-0.87,-0.63,9.82,-0.02,-0.01,-0.09,0.0,0.0,0.01,454,2019-04-29 17:34:16:922
-0.87,-0.63,9.82,-0.02,-0.01,-0.09,0.0,0.0,0.01,459,2019-04-29 17:34:16:927
-0.87,-0.63,9.82,-0.02,-0.01,-0.09,0.0,0.0,0.01,465,2019-04-29 17:34:16:933
-0.87,-0.63,9.82,-0.02,-0.01,-0.09,0.0,0.0,0.01,470,2019-04-29 17:34:16:938
-0.78,-0.67,10.07,0.06,-0.04,0.14,0.0,0.0,0.01,475,2019-04-29 17:34:16:943
-0.78,-0.67,10.07,0.06,-0.04,0.14,0.0,0.0,0.01,481,2019-04-29 17:34:16:949
-0.78,-0.67,10.07,0.06,-0.04,0.14,0.0,0.0,0.01,484,2019-04-29 17:34:16:952
-0.78,-0.67,10.07,0.06,-0.04,0.14,0.0,0.0,0.01,490,2019-04-29 17:34:16:958
-0.78,-0.69,9.88,0.06,-0.06,-0.03,0.0,0.0,0.01,494,2019-04-29 17:34:16:962
-0.78,-0.69,9.88,0.06,-0.06,-0.03,0.0,0.0,0.01,500,2019-04-29 17:34:16:968
-0.78,-0.69,9.88,0.06,-0.06,-0.03,0.0,0.0,0.01,508,2019-04-29 17:34:16:976
-0.78,-0.69,9.88,0.06,-0.06,-0.03,0.0,0.0,0.01,509,2019-04-29 17:34:16:977
-0.74,-0.61,9.84,0.09,0.03,-0.07,0.0,0.0,0.0,514,2019-04-29 17:34:16:982
-0.74,-0.61,9.84,0.09,0.03,-0.07,0.0,0.0,0.0,519,2019-04-29 17:34:16:987
-0.74,-0.61,9.84,0.09,0.03,-0.07,0.0,0.0,0.0,524,2019-04-29 17:34:16:992
-0.74,-0.61,9.84,0.09,0.03,-0.07,0.0,0.0,0.0,529,2019-04-29 17:34:16:997
-0.74,-0.61,9.84,0.09,0.03,-0.07,0.0,0.0,0.0,535,2019-04-29 17:34:17:003
-0.74,-0.61,9.84,0.09,0.03,-0.07,0.0,0.0,0.0,540,2019-04-29 17:34:17:008
-0.77,-0.68,10.13,0.05,-0.03,0.19,0.0,0.0,0.0,544,2019-04-29 17:34:17:012
-0.77,-0.68,10.13,0.05,-0.03,0.19,0.0,0.0,0.0,549,2019-04-29 17:34:17:017
-0.77,-0.68,10.13,0.05,-0.03,0.19,0.0,0.0,0.0,554,2019-04-29 17:34:17:022
-0.77,-0.68,10.13,0.05,-0.03,0.19,0.0,0.0,0.0,559,2019-04-29 17:34:17:027
-0.87,-0.66,9.77,-0.04,-0.01,-0.14,0.0,0.0,0.0,564,2019-04-29 17:34:17:032
-0.87,-0.66,9.77,-0.04,-0.01,-0.14,0.0,0.0,0.0,569,2019-04-29 17:34:17:037
-0.87,-0.66,9.77,-0.04,-0.01,-0.14,0.0,0.0,0.0,574,2019-04-29 17:34:17:042
-0.87,-0.66,9.77,-0.04,-0.01,-0.14,0.0,0.0,0.0,580,2019-04-29 17:34:17:048
-0.96,-0.73,9.99,-0.13,-0.08,0.07,0.0,0.0,0.0,585,2019-04-29 17:34:17:053
-0.96,-0.73,9.99,-0.13,-0.08,0.07,0.0,0.0,0.0,590,2019-04-29 17:34:17:058
-0.96,-0.73,9.99,-0.13,-0.08,0.07,0.0,0.0,0.0,595,2019-04-29 17:34:17:063
-0.96,-0.73,9.99,-0.13,-0.08,0.07,0.0,0.0,0.0,599,2019-04-29 17:34:17:067
-0.96,-0.73,9.99,-0.13,-0.08,0.07,0.0,0.0,0.0,605,2019-04-29 17:34:17:073
-0.96,-0.73,9.99,-0.13,-0.08,0.07,0.0,0.0,0.0,610,2019-04-29 17:34:17:078
-0.94,-0.63,9.92,-0.09,0.02,0.0,0.0,0.0,0.0,615,2019-04-29 17:34:17:083
-0.94,-0.63,9.92,-0.09,0.02,0.0,0.0,0.0,0.0,620,2019-04-29 17:34:17:088
-0.81,-0.66,9.84,-0.09,0.02,0.0,0.0,0.0,0.0,625,2019-04-29 17:34:17:093
-0.81,-0.66,9.84,0.03,0.0,-0.06,0.0,0.0,0.0,629,2019-04-29 17:34:17:097
-0.81,-0.66,9.84,0.03,0.0,-0.06,0.0,0.0,0.0,635,2019-04-29 17:34:17:103
-0.81,-0.66,9.84,0.03,0.0,-0.06,0.0,0.0,0.0,639,2019-04-29 17:34:17:107
-0.9,-0.75,9.95,-0.06,-0.07,0.03,0.0,0.0,0.0,645,2019-04-29 17:34:17:113
-0.9,-0.75,9.95,-0.06,-0.07,0.03,0.0,0.0,0.0,650,2019-04-29 17:34:17:118
-0.9,-0.75,9.95,-0.06,-0.07,0.03,0.0,0.0,0.0,655,2019-04-29 17:34:17:123
-0.9,-0.75,9.95,-0.06,-0.07,0.03,0.0,0.0,0.0,660,2019-04-29 17:34:17:128
-0.9,-0.75,9.95,-0.06,-0.07,0.03,0.0,0.0,0.0,665,2019-04-29 17:34:17:133
-0.9,-0.75,9.95,-0.06,-0.07,0.03,0.0,0.0,0.0,670,2019-04-29 17:34:17:138
-0.86,-0.65,9.9,-0.01,0.02,-0.01,0.0,0.0,0.0,675,2019-04-29 17:34:17:143
-0.86,-0.65,9.9,-0.01,0.02,-0.01,0.0,0.0,0.0,680,2019-04-29 17:34:17:148
-0.79,-0.67,9.94,-0.01,0.02,-0.01,0.0,0.0,0.0,684,2019-04-29 17:34:17:152
-0.79,-0.67,9.94,-0.01,0.02,-0.01,0.0,0.0,0.0,689,2019-04-29 17:34:17:157
-0.79,-0.67,9.94,-0.01,0.02,-0.01,0.0,0.0,0.0,695,2019-04-29 17:34:17:163
-0.79,-0.67,9.94,-0.01,0.02,-0.01,0.0,0.0,0.0,700,2019-04-29 17:34:17:168
-0.83,-0.68,9.96,0.01,0.0,0.02,0.0,0.0,0.0,704,2019-04-29 17:34:17:172
-0.83,-0.68,9.96,0.01,0.0,0.02,0.0,0.0,0.0,709,2019-04-29 17:34:17:177
-0.83,-0.68,9.96,0.01,0.0,0.02,0.0,0.0,0.0,715,2019-04-29 17:34:17:183
-0.83,-0.68,9.96,0.01,0.0,0.02,0.0,0.0,0.0,719,2019-04-29 17:34:17:187
-0.85,-0.71,9.99,0.0,-0.04,0.07,0.01,0.0,0.0,725,2019-04-29 17:34:17:193
-0.85,-0.71,9.99,0.0,-0.04,0.07,0.01,0.0,0.0,730,2019-04-29 17:34:17:198
-0.85,-0.71,9.99,0.0,-0.04,0.07,0.01,0.0,0.0,735,2019-04-29 17:34:17:203
-0.85,-0.71,9.99,0.0,-0.04,0.07,0.01,0.0,0.0,742,2019-04-29 17:34:17:210
-0.85,-0.55,9.77,0.0,0.11,-0.14,0.0,0.0,0.0,745,2019-04-29 17:34:17:213
-0.85,-0.55,9.77,0.0,0.11,-0.14,0.0,0.0,0.0,754,2019-04-29 17:34:17:222
-0.85,-0.55,9.77,0.0,0.11,-0.14,0.0,0.0,0.0,758,2019-04-29 17:34:17:226
-0.85,-0.55,9.77,0.0,0.11,-0.14,0.0,0.0,0.0,759,2019-04-29 17:34:17:227
-0.79,-0.71,10.02,0.05,-0.03,0.08,-0.01,0.0,0.0,765,2019-04-29 17:34:17:233
-0.79,-0.71,10.02,0.05,-0.03,0.08,-0.01,0.0,0.0,769,2019-04-29 17:34:17:237
-0.79,-0.71,10.02,0.05,-0.03,0.08,-0.01,0.0,0.0,775,2019-04-29 17:34:17:243
-0.79,-0.71,10.02,0.05,-0.03,0.08,-0.01,0.0,0.0,780,2019-04-29 17:34:17:248
-0.82,-0.77,10.07,0.03,-0.08,0.14,0.01,0.0,0.0,784,2019-04-29 17:34:17:252
-0.82,-0.77,10.07,0.03,-0.08,0.14,0.01,0.0,0.0,790,2019-04-29 17:34:17:258
-0.82,-0.77,10.07,0.03,-0.08,0.14,0.01,0.0,0.0,795,2019-04-29 17:34:17:263
-0.82,-0.77,10.07,0.03,-0.08,0.14,0.01,0.0,0.0,799,2019-04-29 17:34:17:267
-0.75,-0.6,9.77,0.09,0.08,-0.14,0.0,0.0,0.0,805,2019-04-29 17:34:17:273
-0.75,-0.6,9.77,0.09,0.08,-0.14,0.0,0.0,0.0,809,2019-04-29 17:34:17:277
-0.75,-0.6,9.77,0.09,0.08,-0.14,0.0,0.0,0.0,815,2019-04-29 17:34:17:283
-0.75,-0.6,9.77,0.09,0.08,-0.14,0.0,0.0,0.0,819,2019-04-29 17:34:17:287
-0.78,-0.69,9.93,0.05,0.0,0.0,-0.01,0.0,0.0,825,2019-04-29 17:34:17:293
-0.78,-0.69,9.93,0.05,0.0,0.0,-0.01,0.0,0.0,830,2019-04-29 17:34:17:298
-0.78,-0.69,9.93,0.05,0.0,0.0,-0.01,0.0,0.0,834,2019-04-29 17:34:17:302
-0.78,-0.69,9.93,0.05,0.0,0.0,-0.01,0.0,0.0,842,2019-04-29 17:34:17:310
-0.78,-0.69,9.93,0.05,0.0,0.0,-0.01,0.0,0.0,844,2019-04-29 17:34:17:312
-0.82,-0.7,9.98,0.02,-0.01,0.04,0.01,0.0,0.0,849,2019-04-29 17:34:17:317
-0.82,-0.7,9.98,0.02,-0.01,0.04,0.01,0.0,0.0,855,2019-04-29 17:34:17:323
-0.82,-0.7,9.98,0.02,-0.01,0.04,0.01,0.0,0.0,860,2019-04-29 17:34:17:328
-0.85,-0.62,9.8,0.0,0.06,-0.12,0.0,0.0,0.0,865,2019-04-29 17:34:17:333
-0.85,-0.62,9.8,0.0,0.06,-0.12,0.0,0.0,0.0,869,2019-04-29 17:34:17:337
-0.85,-0.62,9.8,0.0,0.06,-0.12,0.0,0.0,0.0,874,2019-04-29 17:34:17:342
-0.85,-0.62,9.8,0.0,0.06,-0.12,0.0,0.0,0.0,879,2019-04-29 17:34:17:347
-0.83,-0.66,9.91,0.01,0.02,-0.01,0.0,0.0,0.0,885,2019-04-29 17:34:17:353
-0.83,-0.66,9.91,0.01,0.02,-0.01,0.0,0.0,0.0,890,2019-04-29 17:34:17:358
-0.83,-0.66,9.91,0.01,0.02,-0.01,0.0,0.0,0.0,895,2019-04-29 17:34:17:363
-0.83,-0.66,9.91,0.01,0.02,-0.01,0.0,0.0,0.0,899,2019-04-29 17:34:17:367
-0.84,-0.76,10.02,0.0,-0.06,0.1,0.0,0.0,0.0,905,2019-04-29 17:34:17:373
-0.84,-0.76,10.02,0.0,-0.06,0.1,0.0,0.0,0.0,909,2019-04-29 17:34:17:377
-0.84,-0.76,10.02,0.0,-0.06,0.1,0.0,0.0,0.0,914,2019-04-29 17:34:17:382
-0.84,-0.76,10.02,0.0,-0.06,0.1,0.0,0.0,0.0,919,2019-04-29 17:34:17:387
-0.84,-0.63,9.84,0.0,0.06,-0.08,0.0,0.0,0.0,925,2019-04-29 17:34:17:393
-0.84,-0.63,9.84,0.0,0.06,-0.08,0.0,0.0,0.0,929,2019-04-29 17:34:17:397
-0.84,-0.63,9.84,0.0,0.06,-0.08,0.0,0.0,0.0,934,2019-04-29 17:34:17:402
-0.84,-0.63,9.84,0.0,0.06,-0.08,0.0,0.0,0.0,939,2019-04-29 17:34:17:407
-0.78,-0.67,9.86,0.05,0.03,-0.06,0.0,0.0,0.0,944,2019-04-29 17:34:17:412
-0.78,-0.67,9.86,0.05,0.03,-0.06,0.0,0.0,0.0,950,2019-04-29 17:34:17:418
-0.78,-0.67,9.86,0.05,0.03,-0.06,0.0,0.0,0.0,955,2019-04-29 17:34:17:423
-0.78,-0.67,9.86,0.05,0.03,-0.06,0.0,0.0,0.0,959,2019-04-29 17:34:17:427
-0.84,-0.72,9.96,0.0,-0.02,0.04,0.0,0.0,0.0,964,2019-04-29 17:34:17:432
-0.84,-0.72,9.96,0.0,-0.02,0.04,0.0,0.0,0.0,969,2019-04-29 17:34:17:437
-0.84,-0.72,9.96,0.0,-0.02,0.04,0.0,0.0,0.0,975,2019-04-29 17:34:17:443
-0.84,-0.72,9.96,0.0,-0.02,0.04,0.0,0.0,0.0,979,2019-04-29 17:34:17:447
-0.78,-0.68,9.96,0.04,0.01,0.03,0.0,0.0,0.0,984,2019-04-29 17:34:17:452
-0.78,-0.68,9.96,0.04,0.01,0.03,0.0,0.0,0.0,989,2019-04-29 17:34:17:457
-0.78,-0.68,9.96,0.04,0.01,0.03,0.0,0.0,0.0,995,2019-04-29 17:34:17:463
-0.78,-0.68,9.96,0.04,0.01,0.03,0.0,0.0,0.0,1000,2019-04-29 17:34:17:468
-0.8,-0.71,9.93,0.02,-0.01,0.0,0.0,0.0,0.0,1004,2019-04-29 17:34:17:472
-0.8,-0.71,9.93,0.02,-0.01,0.0,0.0,0.0,0.0,1009,2019-04-29 17:34:17:477
-0.8,-0.71,9.93,0.02,-0.01,0.0,0.0,0.0,0.0,1014,2019-04-29 17:34:17:482
-0.8,-0.71,9.93,0.02,-0.01,0.0,0.0,0.0,0.0,1019,2019-04-29 17:34:17:487
-0.87,-0.77,9.97,-0.03,-0.07,0.05,0.0,0.0,0.0,1025,2019-04-29 17:34:17:493
-0.87,-0.77,9.97,-0.03,-0.07,0.05,0.0,0.0,0.0,1029,2019-04-29 17:34:17:497
-0.87,-0.77,9.97,-0.03,-0.07,0.05,0.0,0.0,0.0,1034,2019-04-29 17:34:17:502
-0.87,-0.77,9.97,-0.03,-0.07,0.05,0.0,0.0,0.0,1039,2019-04-29 17:34:17:507
-0.87,-0.77,9.97,-0.03,-0.07,0.05,0.0,0.0,0.0,1044,2019-04-29 17:34:17:512
-0.87,-0.71,9.87,-0.03,0.0,-0.05,0.0,0.0,0.0,1049,2019-04-29 17:34:17:517
-0.87,-0.71,9.87,-0.03,0.0,-0.05,0.0,0.0,0.0,1054,2019-04-29 17:34:17:522
-0.87,-0.71,9.87,-0.03,0.0,-0.05,0.0,0.0,0.0,1059,2019-04-29 17:34:17:527
-0.89,-0.68,9.9,-0.04,0.02,-0.01,0.0,0.0,0.01,1064,2019-04-29 17:34:17:532
-0.89,-0.68,9.9,-0.04,0.02,-0.01,0.0,0.0,0.01,1069,2019-04-29 17:34:17:537
-0.89,-0.68,9.9,-0.04,0.02,-0.01,0.0,0.0,0.01,1075,2019-04-29 17:34:17:543
-0.89,-0.68,9.9,-0.04,0.02,-0.01,0.0,0.0,0.01,1080,2019-04-29 17:34:17:548
-0.87,-0.71,9.89,-0.03,0.0,-0.03,0.0,0.0,0.01,1085,2019-04-29 17:34:17:553
-0.87,-0.71,9.89,-0.03,0.0,-0.03,0.0,0.0,0.01,1090,2019-04-29 17:34:17:558
-0.87,-0.71,9.89,-0.03,0.0,-0.03,0.0,0.0,0.01,1095,2019-04-29 17:34:17:563
-0.87,-0.71,9.89,-0.03,0.0,-0.03,0.0,0.0,0.01,1100,2019-04-29 17:34:17:568
-0.83,-0.62,9.72,0.0,0.08,-0.19,0.0,0.0,0.01,1104,2019-04-29 17:34:17:572
-0.83,-0.62,9.72,0.0,0.08,-0.19,0.0,0.0,0.01,1110,2019-04-29 17:34:17:578
-0.83,-0.62,9.72,0.0,0.08,-0.19,0.0,0.0,0.01,1115,2019-04-29 17:34:17:583
-0.83,-0.62,9.72,0.0,0.08,-0.19,0.0,0.0,0.01,1119,2019-04-29 17:34:17:587
-0.83,-0.7,10.13,0.0,0.01,0.19,0.0,0.0,0.01,1124,2019-04-29 17:34:17:592
-0.83,-0.7,10.13,0.0,0.01,0.19,0.0,0.0,0.01,1129,2019-04-29 17:34:17:597
-0.83,-0.7,10.13,0.0,0.01,0.19,0.0,0.0,0.01,1134,2019-04-29 17:34:17:602
-0.83,-0.7,10.13,0.0,0.01,0.19,0.0,0.0,0.01,1139,2019-04-29 17:34:17:607
-0.59,-0.54,10.15,0.23,0.16,0.2,0.02,0.0,0.01,1146,2019-04-29 17:34:17:614
-0.59,-0.54,10.15,0.23,0.16,0.2,0.02,0.0,0.01,1150,2019-04-29 17:34:17:618
-0.59,-0.54,10.15,0.23,0.16,0.2,0.02,0.0,0.01,1155,2019-04-29 17:34:17:623
-0.59,-0.54,10.15,0.23,0.16,0.2,0.02,0.0,0.01,1160,2019-04-29 17:34:17:628
-0.71,-0.8,9.51,0.08,-0.09,-0.42,0.02,-0.01,0.01,1164,2019-04-29 17:34:17:632
-0.71,-0.8,9.51,0.08,-0.09,-0.42,0.02,-0.01,0.01,1169,2019-04-29 17:34:17:637
-0.71,-0.8,9.51,0.08,-0.09,-0.42,0.02,-0.01,0.01,1175,2019-04-29 17:34:17:643
-0.71,-0.8,9.51,0.08,-0.09,-0.42,0.02,-0.01,0.01,1180,2019-04-29 17:34:17:648
-0.71,-0.8,9.51,0.08,-0.09,-0.42,0.02,-0.01,0.01,1185,2019-04-29 17:34:17:653
-0.71,-0.8,9.51,0.08,-0.09,-0.42,0.02,-0.01,0.01,1189,2019-04-29 17:34:17:657
-1.67,-1.0,9.85,-0.79,-0.3,-0.1,0.0,-0.01,0.0,1195,2019-04-29 17:34:17:663
-1.67,-1.0,9.85,-0.79,-0.3,-0.1,0.0,-0.01,0.0,1200,2019-04-29 17:34:17:668
-1.67,-1.0,9.85,-0.79,-0.3,-0.1,0.03,0.0,0.02,1204,2019-04-29 17:34:17:672
-1.67,-1.0,9.85,-0.79,-0.3,-0.1,0.03,0.0,0.02,1210,2019-04-29 17:34:17:678
-1.67,-1.0,9.85,-0.79,-0.3,-0.1,0.03,0.0,0.02,1215,2019-04-29 17:34:17:683
-1.67,-1.0,9.85,-0.79,-0.3,-0.1,0.03,0.0,0.02,1219,2019-04-29 17:34:17:687
-0.99,-0.2,9.67,-0.79,-0.3,-0.1,0.03,0.0,0.02,1225,2019-04-29 17:34:17:693
-0.99,-0.2,9.67,-0.16,0.46,-0.22,-0.02,0.01,0.0,1230,2019-04-29 17:34:17:698
-0.99,-0.2,9.67,-0.16,0.46,-0.22,-0.02,0.01,0.0,1235,2019-04-29 17:34:17:703
-0.99,-0.2,9.67,-0.16,0.46,-0.22,-0.02,0.01,0.0,1240,2019-04-29 17:34:17:708
-0.99,-0.2,9.67,-0.16,0.46,-0.22,-0.02,0.01,0.0,1245,2019-04-29 17:34:17:713
-0.35,-0.82,10.02,0.48,-0.12,0.08,0.0,0.0,0.01,1250,2019-04-29 17:34:17:718
-0.35,-0.82,10.02,0.48,-0.12,0.08,0.0,0.0,0.01,1254,2019-04-29 17:34:17:722
-0.35,-0.82,10.02,0.48,-0.12,0.08,0.0,0.0,0.01,1259,2019-04-29 17:34:17:727
-1.17,-1.16,10.28,-0.34,-0.45,0.34,0.03,-0.01,0.02,1265,2019-04-29 17:34:17:733
-1.17,-1.16,10.28,-0.34,-0.45,0.34,0.03,-0.01,0.02,1269,2019-04-29 17:34:17:737
-1.17,-1.16,10.28,-0.34,-0.45,0.34,0.03,-0.01,0.02,1275,2019-04-29 17:34:17:743
-1.17,-1.16,10.28,-0.34,-0.45,0.34,0.03,-0.01,0.02,1279,2019-04-29 17:34:17:747
-1.42,-0.79,9.62,-0.56,-0.1,-0.29,0.0,0.0,0.03,1284,2019-04-29 17:34:17:752
-1.42,-0.79,9.62,-0.56,-0.1,-0.29,0.0,0.0,0.03,1289,2019-04-29 17:34:17:757
-1.42,-0.79,9.62,-0.56,-0.1,-0.29,0.0,0.0,0.03,1294,2019-04-29 17:34:17:762
-1.42,-0.79,9.62,-0.56,-0.1,-0.29,0.0,0.0,0.03,1299,2019-04-29 17:34:17:767
-1.42,-0.79,9.62,-0.56,-0.1,-0.29,0.0,0.0,0.03,1304,2019-04-29 17:34:17:772
-1.42,-0.79,9.62,-0.56,-0.1,-0.29,0.0,0.0,0.03,1309,2019-04-29 17:34:17:777
-1.12,-0.8,9.57,-0.31,-0.07,-0.35,0.0,0.01,0.01,1314,2019-04-29 17:34:17:782
-1.12,-0.8,9.57,-0.31,-0.07,-0.35,0.0,0.01,0.01,1319,2019-04-29 17:34:17:787
-1.12,-0.8,9.57,-0.31,-0.07,-0.35,0.0,0.0,0.02,1325,2019-04-29 17:34:17:793
-0.73,-0.42,10.13,0.1,0.3,0.19,0.0,0.0,0.02,1329,2019-04-29 17:34:17:797
-0.73,-0.42,10.13,0.1,0.3,0.19,0.0,0.0,0.02,1334,2019-04-29 17:34:17:802
-0.73,-0.42,10.13,0.1,0.3,0.19,0.0,0.0,0.02,1339,2019-04-29 17:34:17:807
-0.88,-0.74,9.83,-0.02,0.0,-0.08,0.03,0.0,0.03,1345,2019-04-29 17:34:17:813
-0.88,-0.74,9.83,-0.02,0.0,-0.08,0.03,0.0,0.03,1349,2019-04-29 17:34:17:817
-0.88,-0.74,9.83,-0.02,0.0,-0.08,0.03,0.0,0.03,1354,2019-04-29 17:34:17:822
-0.88,-0.74,9.83,-0.02,0.0,-0.08,0.03,0.0,0.03,1359,2019-04-29 17:34:17:827
-0.75,-0.68,9.97,0.06,0.06,0.05,-0.01,0.0,0.03,1364,2019-04-29 17:34:17:832
-0.75,-0.68,9.97,0.06,0.06,0.05,-0.01,0.0,0.03,1369,2019-04-29 17:34:17:837
-0.75,-0.68,9.97,0.06,0.06,0.05,-0.01,0.0,0.03,1374,2019-04-29 17:34:17:842
-0.75,-0.68,9.97,0.06,0.06,0.05,-0.01,0.0,0.03,1379,2019-04-29 17:34:17:847
-0.67,-0.52,9.97,0.12,0.17,0.0,0.0,0.0,0.03,1384,2019-04-29 17:34:17:852
-0.67,-0.52,9.97,0.12,0.17,0.0,0.0,0.0,0.03,1390,2019-04-29 17:34:17:858
-0.67,-0.52,9.97,0.12,0.17,0.0,0.0,0.0,0.03,1395,2019-04-29 17:34:17:863
-0.67,-0.52,9.97,0.12,0.17,0.0,0.0,0.0,0.03,1399,2019-04-29 17:34:17:867
-0.67,-0.52,9.97,0.12,0.17,0.0,0.0,0.0,0.03,1404,2019-04-29 17:34:17:872
-0.67,-0.52,9.97,0.12,0.17,0.0,0.0,0.0,0.03,1409,2019-04-29 17:34:17:877
-0.69,-0.5,9.84,0.13,0.21,-0.12,0.01,0.0,0.04,1415,2019-04-29 17:34:17:883
-0.69,-0.5,9.84,0.13,0.21,-0.12,0.01,0.0,0.04,1420,2019-04-29 17:34:17:888
-0.69,-0.5,9.84,0.13,0.21,-0.12,0.0,0.0,0.03,1425,2019-04-29 17:34:17:893
-0.9,-0.48,9.65,0.01,-0.03,0.13,0.0,0.0,0.03,1429,2019-04-29 17:34:17:897
-0.9,-0.48,9.65,0.01,-0.03,0.13,0.0,0.0,0.03,1435,2019-04-29 17:34:17:903
-0.9,-0.48,9.65,0.01,-0.03,0.13,0.0,0.0,0.03,1440,2019-04-29 17:34:17:908
-0.75,-0.57,9.96,0.09,0.13,0.0,0.0,0.0,0.03,1444,2019-04-29 17:34:17:912
-0.75,-0.57,9.96,0.09,0.13,0.0,0.0,0.0,0.03,1450,2019-04-29 17:34:17:918
-0.75,-0.57,9.96,0.09,0.13,0.0,0.0,0.0,0.03,1455,2019-04-29 17:34:17:923
-0.75,-0.57,9.96,0.09,0.13,0.0,0.0,0.0,0.03,1459,2019-04-29 17:34:17:927
-0.75,-0.57,9.96,0.09,0.13,0.0,0.0,0.0,0.03,1465,2019-04-29 17:34:17:933
-0.76,-0.58,9.87,0.06,0.11,-0.08,0.01,0.0,0.03,1470,2019-04-29 17:34:17:938
-0.76,-0.58,9.87,0.06,0.11,-0.08,0.01,0.0,0.03,1475,2019-04-29 17:34:17:943
-0.76,-0.58,9.87,0.06,0.11,-0.08,0.01,0.0,0.03,1480,2019-04-29 17:34:17:948
-0.76,-0.58,9.87,0.06,0.11,-0.08,0.01,0.0,0.03,1485,2019-04-29 17:34:17:953
-0.76,-0.58,9.87,0.06,0.11,-0.08,0.01,0.0,0.03,1490,2019-04-29 17:34:17:958
-0.8,-0.66,9.92,0.02,0.0,-0.02,0.0,0.0,0.03,1494,2019-04-29 17:34:17:962
-0.8,-0.66,9.92,0.02,0.0,-0.02,0.0,0.0,0.03,1499,2019-04-29 17:34:17:967
-0.8,-0.66,9.92,0.02,0.0,-0.02,0.0,0.0,0.03,1504,2019-04-29 17:34:17:972
-0.8,-0.66,9.92,0.02,0.0,-0.02,0.0,0.0,0.03,1511,2019-04-29 17:34:17:979
-0.82,-0.56,9.85,0.02,0.07,-0.09,0.0,0.0,0.03,1516,2019-04-29 17:34:17:984
-0.82,-0.56,9.85,0.02,0.07,-0.09,0.0,0.0,0.03,1520,2019-04-29 17:34:17:988
-0.82,-0.56,9.85,0.02,0.07,-0.09,0.0,0.0,0.03,1524,2019-04-29 17:34:17:992
-0.82,-0.6,9.76,0.02,0.07,-0.09,0.0,0.0,0.03,1530,2019-04-29 17:34:17:998
-0.85,-0.6,9.76,-0.01,0.02,-0.16,0.0,0.0,0.04,1536,2019-04-29 17:34:18:004
-0.85,-0.6,9.76,-0.01,0.02,-0.16,-0.01,0.0,0.04,1541,2019-04-29 17:34:18:009
-0.85,-0.6,9.76,-0.01,0.02,-0.16,-0.01,0.0,0.04,1544,2019-04-29 17:34:18:012
-0.76,-0.7,9.87,-0.1,-0.11,0.12,-0.01,0.0,0.04,1549,2019-04-29 17:34:18:017
-0.76,-0.7,9.87,-0.1,-0.11,0.12,-0.01,0.0,0.04,1555,2019-04-29 17:34:18:023
-0.76,-0.7,9.87,-0.1,-0.11,0.12,-0.01,0.0,0.04,1560,2019-04-29 17:34:18:028
-0.86,-0.68,9.96,-0.01,-0.05,0.02,0.0,0.0,0.04,1565,2019-04-29 17:34:18:033
-0.86,-0.68,9.96,-0.01,-0.05,0.02,0.0,0.0,0.04,1570,2019-04-29 17:34:18:038
-0.86,-0.68,9.96,-0.01,-0.05,0.02,0.0,0.0,0.04,1574,2019-04-29 17:34:18:042
-0.86,-0.68,9.96,-0.01,-0.05,0.02,0.0,0.0,0.04,1580,2019-04-29 17:34:18:048
-0.86,-0.68,9.96,-0.01,-0.05,0.02,0.0,0.0,0.04,1585,2019-04-29 17:34:18:053
-0.86,-0.68,9.96,-0.01,-0.05,0.02,0.0,0.0,0.04,1591,2019-04-29 17:34:18:059
-0.85,-0.6,9.83,-0.01,-0.05,0.02,0.0,0.0,0.04,1594,2019-04-29 17:34:18:062
-0.85,-0.6,9.83,-0.01,0.03,-0.1,0.01,0.0,0.04,1599,2019-04-29 17:34:18:067
-0.85,-0.6,9.83,-0.01,0.03,-0.1,0.01,0.0,0.04,1605,2019-04-29 17:34:18:073
-0.85,-0.6,9.83,-0.01,0.03,-0.1,0.01,0.0,0.04,1610,2019-04-29 17:34:18:078
-0.85,-0.77,10.07,-0.01,-0.12,0.14,-0.01,0.0,0.04,1615,2019-04-29 17:34:18:083
-0.85,-0.77,10.07,-0.01,-0.12,0.14,-0.01,0.0,0.04,1619,2019-04-29 17:34:18:087
-0.87,-0.74,9.92,-0.01,-0.12,0.14,0.0,0.0,0.04,1629,2019-04-29 17:34:18:097
-0.87,-0.74,9.92,-0.01,-0.12,0.14,0.0,0.0,0.04,1631,2019-04-29 17:34:18:099
-0.87,-0.74,9.92,-0.01,-0.12,0.14,0.0,0.0,0.04,1634,2019-04-29 17:34:18:102
-0.87,-0.74,9.92,-0.01,-0.12,0.14,0.0,0.0,0.04,1640,2019-04-29 17:34:18:108
-0.84,-0.75,9.98,0.0,-0.07,0.04,0.0,0.0,0.04,1645,2019-04-29 17:34:18:113
-0.84,-0.75,9.98,0.0,-0.07,0.04,0.0,0.0,0.04,1650,2019-04-29 17:34:18:118
-0.84,-0.75,9.98,0.0,-0.07,0.04,0.0,0.0,0.04,1654,2019-04-29 17:34:18:122
-0.84,-0.75,9.98,0.0,-0.07,0.04,0.0,0.0,0.04,1659,2019-04-29 17:34:18:127
-0.79,-0.68,9.91,0.04,0.0,-0.01,0.0,0.0,0.04,1666,2019-04-29 17:34:18:134
-0.79,-0.68,9.91,0.04,0.0,-0.01,0.0,0.0,0.04,1669,2019-04-29 17:34:18:137
-0.79,-0.68,9.91,0.04,0.0,-0.01,0.0,0.0,0.04,1674,2019-04-29 17:34:18:142
-0.79,-0.56,9.9,0.04,0.11,-0.03,0.0,0.0,0.04,1682,2019-04-29 17:34:18:150
-0.79,-0.56,9.9,0.04,0.11,-0.03,0.0,0.0,0.04,1684,2019-04-29 17:34:18:152
-0.79,-0.56,9.9,0.04,0.11,-0.03,0.0,0.0,0.04,1690,2019-04-29 17:34:18:158
-0.79,-0.56,9.9,0.04,0.11,-0.03,0.0,0.0,0.04,1696,2019-04-29 17:34:18:164
-0.79,-0.56,9.9,0.04,0.11,-0.03,0.0,0.0,0.04,1700,2019-04-29 17:34:18:168
-0.79,-0.56,9.9,0.04,0.11,-0.03,0.0,0.0,0.04,1705,2019-04-29 17:34:18:173
-0.79,-0.56,9.9,0.04,0.11,-0.03,0.0,0.0,0.04,1709,2019-04-29 17:34:18:177
-0.79,-0.73,10.06,0.04,-0.04,0.11,-0.01,0.0,0.04,1716,2019-04-29 17:34:18:184
-0.79,-0.73,10.06,0.04,-0.04,0.11,-0.01,0.0,0.04,1719,2019-04-29 17:34:18:187
-0.79,-0.73,10.06,0.04,-0.04,0.11,-0.01,0.0,0.04,1725,2019-04-29 17:34:18:193
-0.79,-0.73,10.06,0.04,-0.04,0.11,-0.01,0.0,0.04,1730,2019-04-29 17:34:18:198
-0.84,-0.53,9.66,0.0,0.14,-0.27,0.01,0.0,0.03,1737,2019-04-29 17:34:18:205
-0.84,-0.53,9.66,0.0,0.14,-0.27,0.01,0.0,0.03,1740,2019-04-29 17:34:18:208
-0.84,-0.53,9.66,0.0,0.14,-0.27,0.01,0.0,0.03,1745,2019-04-29 17:34:18:213
-0.89,-0.67,9.97,0.0,0.14,-0.27,-0.01,0.0,0.03,1750,2019-04-29 17:34:18:218
-0.89,-0.67,9.97,-0.05,0.01,0.03,-0.01,0.0,0.03,1755,2019-04-29 17:34:18:223
-0.89,-0.67,9.97,-0.05,0.01,0.03,-0.01,0.0,0.03,1759,2019-04-29 17:34:18:227
-0.89,-0.67,9.97,-0.05,0.01,0.03,-0.01,0.0,0.03,1765,2019-04-29 17:34:18:233
-0.89,-0.67,9.97,-0.05,0.01,0.03,-0.01,0.0,0.03,1769,2019-04-29 17:34:18:237
-0.93,-0.72,9.93,-0.09,-0.04,0.0,0.0,0.0,0.04,1775,2019-04-29 17:34:18:243
-0.93,-0.72,9.93,-0.09,-0.04,0.0,0.0,0.0,0.04,1779,2019-04-29 17:34:18:247
-0.93,-0.72,9.93,0.06,-0.05,0.14,0.0,0.0,0.04,1785,2019-04-29 17:34:18:253
-0.93,-0.72,9.93,0.06,-0.05,0.14,0.0,0.0,0.04,1789,2019-04-29 17:34:18:257
-0.93,-0.72,9.93,0.06,-0.05,0.14,0.0,0.0,0.04,1796,2019-04-29 17:34:18:264
-0.93,-0.72,9.93,0.06,-0.05,0.14,0.0,0.0,0.04,1799,2019-04-29 17:34:18:267
-0.93,-0.72,9.93,0.06,-0.05,0.14,0.0,0.0,0.04,1804,2019-04-29 17:34:18:272
-0.93,-0.72,9.93,0.06,0.05,-0.07,0.0,0.0,0.04,1809,2019-04-29 17:34:18:277
-0.9,-0.62,9.85,-0.05,0.05,-0.07,0.0,0.0,0.04,1817,2019-04-29 17:34:18:285
-0.9,-0.62,9.85,-0.05,0.05,-0.07,0.0,0.0,0.04,1819,2019-04-29 17:34:18:287
-0.9,-0.62,9.85,-0.05,0.05,-0.07,0.0,0.0,0.04,1824,2019-04-29 17:34:18:292
-0.86,-0.66,10.0,-0.02,0.01,0.06,0.0,0.0,0.04,1830,2019-04-29 17:34:18:298
-0.86,-0.66,10.0,-0.02,0.01,0.06,0.0,0.0,0.04,1834,2019-04-29 17:34:18:302
-0.86,-0.66,10.0,-0.02,0.01,0.06,0.0,0.0,0.04,1840,2019-04-29 17:34:18:308
-0.86,-0.66,10.0,-0.02,0.01,0.06,0.0,0.0,0.04,1845,2019-04-29 17:34:18:313
-0.86,-0.66,10.0,-0.02,0.01,0.06,0.0,0.0,0.04,1850,2019-04-29 17:34:18:318
-0.76,-0.74,10.04,0.07,-0.08,0.11,0.0,0.0,0.04,1855,2019-04-29 17:34:18:323
-0.76,-0.74,10.04,0.07,-0.08,0.11,0.0,0.0,0.04,1860,2019-04-29 17:34:18:328
-0.86,-0.55,9.74,-0.02,0.1,-0.18,0.01,0.0,0.04,1875,2019-04-29 17:34:18:343
-0.86,-0.55,9.74,-0.02,0.1,-0.18,0.01,0.0,0.04,1878,2019-04-29 17:34:18:346
-0.86,-0.55,9.74,-0.02,0.1,-0.18,0.01,0.0,0.04,1879,2019-04-29 17:34:18:347
-0.86,-0.55,9.74,-0.02,0.1,-0.18,0.01,0.0,0.04,1880,2019-04-29 17:34:18:348
-0.86,-0.55,9.74,-0.02,0.1,-0.18,0.01,0.0,0.04,1885,2019-04-29 17:34:18:353
-0.86,-0.55,9.74,-0.02,0.1,-0.18,0.01,0.0,0.04,1890,2019-04-29 17:34:18:358
-0.81,-0.68,10.07,0.02,-0.01,0.13,-0.01,0.0,0.04,1895,2019-04-29 17:34:18:363
-0.81,-0.68,10.07,0.02,-0.01,0.13,-0.01,0.0,0.04,1900,2019-04-29 17:34:18:368
-0.81,-0.68,10.07,0.02,-0.01,0.13,-0.01,0.0,0.04,1906,2019-04-29 17:34:18:374
-0.81,-0.68,9.99,0.02,-0.02,0.07,0.0,0.0,0.04,1913,2019-04-29 17:34:18:381
-0.81,-0.68,9.99,0.02,-0.02,0.07,0.0,0.0,0.04,1914,2019-04-29 17:34:18:382
-0.81,-0.68,9.99,0.02,-0.02,0.07,0.0,0.0,0.04,1920,2019-04-29 17:34:18:388
-0.81,-0.68,9.99,0.02,-0.02,0.07,0.02,0.0,0.04,1927,2019-04-29 17:34:18:395
-0.81,-0.68,9.99,0.02,-0.02,0.07,0.02,0.0,0.04,1930,2019-04-29 17:34:18:398
-0.81,-0.68,9.99,0.02,-0.02,0.07,0.02,0.0,0.04,1935,2019-04-29 17:34:18:403
-0.85,-0.76,10.12,-0.01,-0.1,0.18,-0.02,0.0,0.04,1940,2019-04-29 17:34:18:408
-0.85,-0.76,10.12,-0.01,-0.1,0.18,-0.02,0.0,0.04,1944,2019-04-29 17:34:18:412
-0.85,-0.76,10.12,-0.01,-0.1,0.18,-0.02,0.0,0.04,1950,2019-04-29 17:34:18:418
-0.85,-0.76,10.12,-0.01,-0.1,0.18,-0.02,0.0,0.04,1955,2019-04-29 17:34:18:423
-0.85,-0.76,10.12,-0.01,-0.1,0.18,-0.02,0.0,0.04,1959,2019-04-29 17:34:18:427
-0.85,-0.76,10.12,-0.01,-0.1,0.18,-0.02,0.0,0.04,1964,2019-04-29 17:34:18:432
-0.85,-0.76,10.12,-0.01,-0.1,0.18,-0.02,0.0,0.04,1970,2019-04-29 17:34:18:438
-0.88,-0.63,9.99,-0.04,0.01,0.06,0.01,0.0,0.04,1975,2019-04-29 17:34:18:443
-0.88,-0.63,9.99,-0.04,0.01,0.06,0.01,0.0,0.04,1980,2019-04-29 17:34:18:448
-0.88,-0.63,9.99,-0.02,-0.03,0.04,0.01,0.0,0.05,1985,2019-04-29 17:34:18:453
-0.88,-0.63,9.99,-0.02,-0.03,0.04,0.01,0.0,0.05,1992,2019-04-29 17:34:18:460
-0.88,-0.63,9.99,-0.02,-0.03,0.04,0.01,0.0,0.05,1994,2019-04-29 17:34:18:462
-0.88,-0.63,9.99,-0.02,-0.03,0.04,0.01,0.0,0.05,2000,2019-04-29 17:34:18:468
-0.89,-0.67,9.99,-0.02,-0.08,0.09,-0.01,0.0,0.05,2021,2019-04-29 17:34:18:489
-0.89,-0.67,9.99,-0.04,-0.03,0.06,0.0,0.0,0.05,2022,2019-04-29 17:34:18:490
-0.89,-0.67,9.99,-0.04,-0.03,0.06,0.0,0.0,0.05,2023,2019-04-29 17:34:18:491
-0.89,-0.67,9.99,-0.04,-0.03,0.06,0.0,0.0,0.05,2023,2019-04-29 17:34:18:491
-0.89,-0.67,9.99,-0.04,-0.03,0.06,0.0,0.0,0.05,2026,2019-04-29 17:34:18:494
-0.89,-0.67,9.99,-0.04,-0.03,0.06,0.0,0.0,0.05,2030,2019-04-29 17:34:18:498
-0.89,-0.67,9.99,-0.04,-0.03,0.06,0.0,0.0,0.05,2035,2019-04-29 17:34:18:503
-0.89,-0.67,9.99,-0.04,-0.03,0.06,0.0,0.0,0.05,2039,2019-04-29 17:34:18:507
-0.84,-0.58,9.79,0.01,0.05,-0.13,0.01,0.0,0.05,2045,2019-04-29 17:34:18:513
-0.84,-0.58,9.79,0.01,0.05,-0.13,0.01,0.0,0.05,2050,2019-04-29 17:34:18:518
-0.84,-0.58,9.79,0.01,0.05,-0.13,0.01,0.0,0.05,2055,2019-04-29 17:34:18:523
-0.84,-0.58,9.79,0.01,0.05,-0.13,0.01,0.0,0.05,2059,2019-04-29 17:34:18:527
-0.85,-0.69,10.05,0.0,-0.05,0.1,-0.01,0.0,0.06,2065,2019-04-29 17:34:18:533
-0.85,-0.69,10.05,0.0,-0.05,0.1,-0.01,0.0,0.06,2070,2019-04-29 17:34:18:538
-0.85,-0.69,10.05,0.0,-0.05,0.1,-0.01,0.0,0.06,2075,2019-04-29 17:34:18:543
-0.85,-0.69,10.05,0.0,-0.05,0.1,-0.01,0.0,0.06,2080,2019-04-29 17:34:18:548
-0.86,-0.59,9.91,0.0,0.03,-0.02,0.0,0.0,0.06,2084,2019-04-29 17:34:18:552
-0.86,-0.59,9.91,0.0,0.03,-0.02,0.0,0.0,0.06,2090,2019-04-29 17:34:18:558
-0.86,-0.59,9.91,0.0,0.03,-0.02,0.0,0.0,0.06,2095,2019-04-29 17:34:18:563
-0.86,-0.59,9.91,0.0,0.03,-0.02,0.0,0.0,0.06,2099,2019-04-29 17:34:18:567
-0.75,-0.59,9.79,0.09,0.03,-0.14,0.0,0.0,0.06,2104,2019-04-29 17:34:18:572
-0.75,-0.59,9.79,0.09,0.03,-0.14,0.0,0.0,0.06,2109,2019-04-29 17:34:18:577
-0.75,-0.59,9.79,0.09,0.03,-0.14,0.0,0.0,0.06,2115,2019-04-29 17:34:18:583
-0.75,-0.59,9.79,0.09,0.03,-0.14,0.0,0.0,0.06,2120,2019-04-29 17:34:18:588
-0.79,-0.64,9.96,0.05,-0.02,0.03,0.0,0.0,0.05,2125,2019-04-29 17:34:18:593
-0.79,-0.64,9.96,0.05,-0.02,0.03,0.0,0.0,0.05,2130,2019-04-29 17:34:18:598
-0.79,-0.64,9.96,0.05,-0.02,0.03,0.0,0.0,0.05,2136,2019-04-29 17:34:18:604
-0.84,-0.64,10.09,0.0,-0.03,0.16,0.0,0.0,0.05,2140,2019-04-29 17:34:18:608
-0.84,-0.64,10.09,0.0,-0.03,0.16,0.0,0.0,0.05,2145,2019-04-29 17:34:18:613
-0.84,-0.64,10.09,0.0,-0.03,0.16,0.0,0.0,0.05,2150,2019-04-29 17:34:18:618
-0.84,-0.64,10.09,0.0,-0.03,0.16,0.0,0.0,0.05,2155,2019-04-29 17:34:18:623
-0.84,-0.64,10.09,0.0,-0.03,0.16,0.0,0.0,0.05,2159,2019-04-29 17:34:18:627
-0.86,-0.53,9.78,-0.01,0.07,-0.14,0.0,0.0,0.05,2165,2019-04-29 17:34:18:633
-0.86,-0.53,9.78,-0.01,0.07,-0.14,0.0,0.0,0.05,2179,2019-04-29 17:34:18:647
-0.86,-0.53,9.78,-0.01,0.07,-0.14,0.0,0.0,0.05,2181,2019-04-29 17:34:18:649
-0.88,-0.62,9.96,-0.03,0.0,0.03,0.0,0.0,0.05,2182,2019-04-29 17:34:18:650
-0.88,-0.62,9.96,-0.03,0.0,0.03,0.0,0.0,0.05,2184,2019-04-29 17:34:18:652
-0.88,-0.62,9.96,-0.03,0.0,0.03,0.0,0.0,0.05,2191,2019-04-29 17:34:18:659
-0.88,-0.62,9.96,-0.03,0.0,0.03,0.0,0.0,0.05,2194,2019-04-29 17:34:18:662
-0.88,-0.62,9.96,-0.03,0.0,0.03,0.0,0.0,0.05,2199,2019-04-29 17:34:18:667
-0.88,-0.62,9.96,-0.03,0.0,0.03,0.0,0.0,0.05,2204,2019-04-29 17:34:18:672
-0.92,-0.66,9.94,-0.07,-0.05,0.02,0.0,0.0,0.06,2211,2019-04-29 17:34:18:679
-0.92,-0.66,9.94,-0.07,-0.05,0.02,0.0,0.0,0.06,2218,2019-04-29 17:34:18:686
-0.92,-0.66,9.94,-0.07,-0.05,0.02,0.0,0.0,0.06,2219,2019-04-29 17:34:18:687
-0.92,-0.66,9.94,-0.07,-0.05,0.02,0.0,0.0,0.06,2225,2019-04-29 17:34:18:693
-0.92,-0.66,9.94,-0.07,-0.05,0.02,0.0,0.0,0.06,2229,2019-04-29 17:34:18:697
-0.84,-0.6,9.85,0.0,0.0,-0.06,0.0,0.0,0.06,2235,2019-04-29 17:34:18:703
-0.84,-0.6,9.85,0.0,0.0,-0.06,0.0,0.0,0.06,2240,2019-04-29 17:34:18:708
-0.84,-0.6,9.85,0.0,0.0,-0.06,0.0,0.0,0.07,2245,2019-04-29 17:34:18:713
-0.84,-0.6,9.85,0.0,0.0,-0.06,0.0,0.0,0.07,2250,2019-04-29 17:34:18:718
-0.84,-0.6,9.85,0.0,0.0,-0.06,0.0,0.0,0.07,2254,2019-04-29 17:34:18:722
-0.84,-0.6,9.85,0.0,0.0,-0.06,0.0,0.0,0.07,2259,2019-04-29 17:34:18:727
-0.86,-0.7,9.99,-0.01,-0.08,0.06,0.0,0.0,0.07,2264,2019-04-29 17:34:18:732
-0.86,-0.7,9.99,-0.01,-0.08,0.06,0.0,0.0,0.07,2269,2019-04-29 17:34:18:737
-0.86,-0.7,9.99,-0.01,-0.08,0.06,0.0,0.0,0.07,2275,2019-04-29 17:34:18:743
-0.88,-0.61,9.81,-0.03,0.0,-0.1,0.01,0.0,0.07,2281,2019-04-29 17:34:18:749
-0.88,-0.61,9.81,-0.03,0.0,-0.1,0.01,0.0,0.07,2284,2019-04-29 17:34:18:752
-0.88,-0.61,9.81,-0.03,0.0,-0.1,0.01,0.0,0.07,2290,2019-04-29 17:34:18:758
-0.88,-0.61,9.81,-0.03,0.0,-0.1,0.01,0.0,0.07,2295,2019-04-29 17:34:18:763
-0.88,-0.61,9.81,-0.03,0.0,-0.1,0.01,0.0,0.07,2300,2019-04-29 17:34:18:768
-0.88,-0.61,9.81,-0.03,0.0,-0.1,0.01,0.0,0.07,2304,2019-04-29 17:34:18:772
-0.88,-0.61,9.81,-0.03,0.0,-0.1,0.01,0.0,0.07,2310,2019-04-29 17:34:18:778
-0.82,-0.62,9.93,0.02,0.0,0.0,0.0,0.0,0.07,2315,2019-04-29 17:34:18:783
-0.82,-0.62,9.93,0.02,0.0,0.0,0.0,0.0,0.07,2320,2019-04-29 17:34:18:788
-0.82,-0.62,9.93,0.02,0.0,0.0,0.0,0.0,0.07,2324,2019-04-29 17:34:18:792
-0.82,-0.62,9.93,0.02,0.0,0.0,0.0,0.0,0.07,2329,2019-04-29 17:34:18:797
-0.82,-0.62,9.93,0.02,0.0,0.0,0.0,0.0,0.07,2335,2019-04-29 17:34:18:803
-0.78,-0.62,9.93,0.06,0.0,0.0,0.0,0.0,0.07,2347,2019-04-29 17:34:18:815
-0.78,-0.62,9.93,0.06,0.0,0.0,0.0,0.0,0.07,2348,2019-04-29 17:34:18:816
-0.78,-0.62,9.93,0.06,0.0,0.0,0.0,0.0,0.07,2349,2019-04-29 17:34:18:817
-0.78,-0.62,9.93,0.06,0.0,0.0,0.0,0.0,0.07,2355,2019-04-29 17:34:18:823
-0.78,-0.62,9.93,0.06,0.0,0.0,0.0,0.0,0.07,2360,2019-04-29 17:34:18:828
-0.81,-0.59,9.87,0.02,0.03,-0.06,0.0,0.0,0.07,2364,2019-04-29 17:34:18:832
-0.81,-0.59,9.87,0.02,0.03,-0.06,0.0,0.0,0.07,2369,2019-04-29 17:34:18:837
-0.81,-0.59,9.87,0.02,0.03,-0.06,0.0,0.0,0.07,2374,2019-04-29 17:34:18:842
-0.81,-0.59,9.87,0.02,0.03,-0.06,0.0,0.0,0.07,2379,2019-04-29 17:34:18:847
-0.91,-0.65,9.99,-0.07,-0.02,0.05,0.0,0.0,0.07,2384,2019-04-29 17:34:18:852
-0.91,-0.65,9.99,-0.07,-0.02,0.05,0.0,0.0,0.07,2389,2019-04-29 17:34:18:857
-0.91,-0.65,9.99,-0.07,-0.02,0.05,0.0,0.0,0.07,2394,2019-04-29 17:34:18:862
-0.91,-0.65,9.99,-0.07,-0.02,0.05,0.0,0.0,0.07,2399,2019-04-29 17:34:18:867
-0.88,-0.6,9.95,-0.04,0.01,0.01,0.0,0.0,0.07,2404,2019-04-29 17:34:18:872
-0.88,-0.6,9.95,-0.04,0.01,0.01,0.0,0.0,0.07,2410,2019-04-29 17:34:18:878
-0.88,-0.6,9.95,-0.04,0.01,0.01,0.0,0.0,0.07,2416,2019-04-29 17:34:18:884
-0.88,-0.6,9.95,-0.04,0.01,0.01,0.0,0.0,0.07,2422,2019-04-29 17:34:18:890
-0.85,-0.53,9.8,-0.01,0.08,-0.13,0.0,0.0,0.07,2425,2019-04-29 17:34:18:893
-0.85,-0.53,9.8,-0.01,0.08,-0.13,0.0,0.0,0.07,2429,2019-04-29 17:34:18:897
-0.85,-0.53,9.8,-0.01,0.08,-0.13,0.0,0.0,0.07,2435,2019-04-29 17:34:18:903
-0.85,-0.53,9.8,-0.01,0.08,-0.13,0.0,0.0,0.07,2439,2019-04-29 17:34:18:907
-0.85,-0.53,9.8,-0.01,0.08,-0.13,0.0,0.0,0.07,2444,2019-04-29 17:34:18:912
-0.85,-0.53,9.8,-0.01,0.08,-0.13,0.0,0.0,0.07,2450,2019-04-29 17:34:18:918
-0.85,-0.52,9.95,0.0,0.08,0.02,0.0,0.0,0.07,2457,2019-04-29 17:34:18:925
-0.85,-0.52,9.95,0.0,0.08,0.02,0.0,0.0,0.07,2459,2019-04-29 17:34:18:927
-0.85,-0.52,9.95,0.0,0.08,0.02,0.0,0.0,0.07,2465,2019-04-29 17:34:18:933
-0.85,-0.52,9.95,0.0,0.08,0.02,0.0,0.0,0.07,2469,2019-04-29 17:34:18:937
-0.85,-0.52,9.95,0.0,0.08,0.02,0.0,0.0,0.07,2474,2019-04-29 17:34:18:942
-0.85,-0.52,9.95,0.0,0.08,0.02,0.0,0.0,0.07,2480,2019-04-29 17:34:18:948
-0.85,-0.52,9.95,0.0,0.08,0.02,0.0,0.0,0.07,2485,2019-04-29 17:34:18:953
-0.85,-0.52,9.95,0.0,0.08,0.02,0.0,0.0,0.07,2490,2019-04-29 17:34:18:958
-0.86,-0.66,9.99,-0.01,-0.06,0.05,0.0,0.0,0.07,2495,2019-04-29 17:34:18:963
-0.86,-0.66,9.99,-0.01,-0.06,0.05,0.0,0.0,0.07,2500,2019-04-29 17:34:18:968
-0.86,-0.66,9.99,-0.01,-0.06,0.05,0.0,0.0,0.07,2504,2019-04-29 17:34:18:972
-0.86,-0.66,9.99,-0.01,-0.06,0.05,0.0,0.0,0.07,2509,2019-04-29 17:34:18:977
-0.9,-0.59,9.86,-0.05,0.0,-0.06,0.0,0.0,0.07,2515,2019-04-29 17:34:18:983
-0.85,-0.57,9.97,0.0,0.03,0.03,0.0,0.0,0.07,2532,2019-04-29 17:34:19:000
-0.85,-0.57,9.97,0.0,0.03,0.03,0.0,0.0,0.07,2533,2019-04-29 17:34:19:001
-0.85,-0.57,9.97,0.0,0.03,0.03,0.0,0.0,0.07,2533,2019-04-29 17:34:19:001
-0.85,-0.57,9.97,0.0,0.03,0.03,0.0,0.0,0.07,2534,2019-04-29 17:34:19:002
-0.85,-0.57,9.97,0.0,0.03,0.03,0.0,0.0,0.07,2539,2019-04-29 17:34:19:007
-0.93,-0.68,10.07,-0.06,-0.08,0.14,0.0,0.0,0.08,2545,2019-04-29 17:34:19:013
-0.93,-0.68,10.07,-0.06,-0.08,0.14,0.0,0.0,0.08,2550,2019-04-29 17:34:19:018
-0.93,-0.68,10.07,-0.06,-0.08,0.14,0.0,0.0,0.08,2555,2019-04-29 17:34:19:023
-0.94,-0.51,9.92,-0.07,0.07,0.0,0.0,0.0,0.09,2560,2019-04-29 17:34:19:028
-0.94,-0.51,9.92,-0.07,0.07,0.0,0.0,0.0,0.09,2564,2019-04-29 17:34:19:032
-0.94,-0.51,9.92,-0.07,0.07,0.0,0.0,0.0,0.09,2570,2019-04-29 17:34:19:038
-0.94,-0.51,9.92,-0.07,0.07,0.0,0.0,0.0,0.09,2574,2019-04-29 17:34:19:042
-0.94,-0.51,9.92,-0.07,0.07,0.0,0.0,0.0,0.09,2579,2019-04-29 17:34:19:047
-0.94,-0.51,9.92,-0.07,0.07,0.0,0.0,0.0,0.09,2586,2019-04-29 17:34:19:054
-0.94,-0.51,9.92,-0.07,0.07,0.0,0.0,0.0,0.09,2589,2019-04-29 17:34:19:057
-0.9,-0.5,9.87,-0.03,0.07,-0.05,0.0,0.0,0.09,2594,2019-04-29 17:34:19:062
-0.9,-0.5,9.87,-0.03,0.07,-0.05,0.0,0.0,0.09,2600,2019-04-29 17:34:19:068
-0.9,-0.5,9.87,0.16,0.01,-0.01,0.0,0.0,0.1,2604,2019-04-29 17:34:19:072
-0.9,-0.5,9.87,0.16,0.01,-0.01,0.0,0.0,0.1,2610,2019-04-29 17:34:19:078
-0.9,-0.5,9.87,0.16,0.01,-0.01,0.0,0.0,0.1,2615,2019-04-29 17:34:19:083
-0.9,-0.5,9.87,0.16,0.01,-0.01,0.0,0.0,0.1,2620,2019-04-29 17:34:19:088
-0.78,-0.57,9.88,0.07,0.0,-0.03,0.0,0.0,0.1,2626,2019-04-29 17:34:19:094
-0.78,-0.57,9.88,0.07,0.0,-0.03,0.0,0.0,0.1,2631,2019-04-29 17:34:19:099
-0.78,-0.57,9.88,0.07,0.0,-0.03,0.0,0.0,0.1,2635,2019-04-29 17:34:19:103
-0.78,-0.57,9.88,0.07,0.0,-0.03,0.0,0.0,0.1,2643,2019-04-29 17:34:19:111
-0.78,-0.57,9.88,0.07,0.0,-0.03,0.0,0.0,0.1,2645,2019-04-29 17:34:19:113
-0.86,-0.67,10.16,0.0,-0.09,0.22,0.0,0.0,0.11,2650,2019-04-29 17:34:19:118
-0.86,-0.67,10.16,0.0,-0.09,0.22,0.0,0.0,0.11,2654,2019-04-29 17:34:19:122
-0.86,-0.67,10.16,0.0,-0.09,0.22,0.0,0.0,0.11,2659,2019-04-29 17:34:19:127
-0.86,-0.67,10.16,0.0,-0.09,0.22,0.01,0.0,0.12,2665,2019-04-29 17:34:19:133
-0.86,-0.67,10.16,0.0,-0.09,0.22,0.01,0.0,0.12,2669,2019-04-29 17:34:19:137
-0.86,-0.67,10.16,0.0,-0.09,0.22,0.01,0.0,0.12,2674,2019-04-29 17:34:19:142
-0.86,-0.67,10.16,0.0,-0.09,0.22,0.01,0.0,0.12,2679,2019-04-29 17:34:19:147
-0.91,-0.73,9.88,-0.04,-0.13,-0.05,0.0,0.0,0.12,2685,2019-04-29 17:34:19:153
-0.91,-0.73,9.88,-0.04,-0.13,-0.05,0.0,0.0,0.12,2690,2019-04-29 17:34:19:158
-0.91,-0.73,9.88,-0.04,-0.13,-0.05,0.0,0.0,0.12,2695,2019-04-29 17:34:19:163
-0.91,-0.73,9.88,-0.04,-0.13,-0.05,0.0,0.0,0.12,2700,2019-04-29 17:34:19:168
-1.01,-0.76,9.97,-0.13,-0.15,0.03,0.0,0.0,0.12,2706,2019-04-29 17:34:19:174
-1.01,-0.76,9.97,-0.13,-0.15,0.03,0.0,0.0,0.12,2709,2019-04-29 17:34:19:177
-1.01,-0.76,9.97,-0.13,-0.15,0.03,0.0,0.0,0.12,2714,2019-04-29 17:34:19:182
-1.01,-0.76,9.97,-0.13,-0.15,0.03,0.0,0.0,0.12,2720,2019-04-29 17:34:19:188
-0.8,-0.7,9.94,0.07,-0.09,0.0,0.01,0.0,0.12,2725,2019-04-29 17:34:19:193
-0.8,-0.7,9.94,0.07,-0.09,0.0,0.01,0.0,0.12,2730,2019-04-29 17:34:19:198
-0.8,-0.7,9.94,0.07,-0.09,0.0,0.01,0.0,0.12,2735,2019-04-29 17:34:19:203
-0.8,-0.7,9.94,0.07,-0.09,0.0,0.01,0.0,0.12,2739,2019-04-29 17:34:19:207
-0.92,-0.45,10.12,0.07,-0.09,0.0,0.01,0.0,0.12,2744,2019-04-29 17:34:19:212
-0.92,-0.45,10.12,-0.04,0.15,0.18,0.01,-0.01,0.12,2750,2019-04-29 17:34:19:218
-0.92,-0.45,10.12,-0.04,0.15,0.18,0.01,-0.01,0.12,2754,2019-04-29 17:34:19:222
-0.92,-0.45,10.12,-0.04,0.15,0.18,0.01,-0.01,0.12,2759,2019-04-29 17:34:19:227
-0.92,-0.45,10.12,-0.04,0.15,0.18,0.01,-0.01,0.12,2764,2019-04-29 17:34:19:232
-0.92,-0.45,10.12,-0.04,0.15,0.18,0.01,-0.01,0.12,2769,2019-04-29 17:34:19:237
-0.67,0.17,10.22,0.19,0.72,0.25,0.03,0.0,0.12,2776,2019-04-29 17:34:19:244
-0.67,0.17,10.22,0.19,0.72,0.25,0.03,0.0,0.12,2780,2019-04-29 17:34:19:248
-0.67,0.17,10.22,0.19,0.72,0.25,0.03,0.0,0.1,2786,2019-04-29 17:34:19:254
-0.67,0.17,10.22,0.19,0.72,0.25,0.03,0.0,0.1,2791,2019-04-29 17:34:19:259
-0.67,0.17,10.22,0.19,0.72,0.25,0.03,0.0,0.1,2795,2019-04-29 17:34:19:263
-0.67,0.17,10.22,0.19,0.72,0.25,0.03,0.0,0.1,2800,2019-04-29 17:34:19:268
-1.09,0.29,9.73,-0.24,0.6,-0.21,0.01,0.0,0.06,2806,2019-04-29 17:34:19:274
-1.09,0.29,9.73,-0.24,0.6,-0.21,0.01,0.0,0.06,2809,2019-04-29 17:34:19:277
-1.09,0.29,9.73,-0.24,0.6,-0.21,0.01,0.0,0.06,2814,2019-04-29 17:34:19:282
-1.09,0.29,9.73,-0.24,0.6,-0.21,0.01,0.0,0.06,2820,2019-04-29 17:34:19:288
-0.85,0.84,9.94,0.0,1.02,0.01,0.02,0.0,0.03,2825,2019-04-29 17:34:19:293
-0.85,0.84,9.94,0.0,1.02,0.01,0.02,0.0,0.03,2830,2019-04-29 17:34:19:298
-0.85,0.84,9.94,0.0,1.02,0.01,0.02,0.0,0.03,2835,2019-04-29 17:34:19:303
-0.96,0.6,9.84,-0.13,0.66,-0.07,-0.01,0.0,0.0,2840,2019-04-29 17:34:19:308
-0.96,0.6,9.84,-0.13,0.66,-0.07,-0.01,0.0,0.0,2854,2019-04-29 17:34:19:322
-0.96,0.6,9.84,-0.13,0.66,-0.07,-0.01,0.0,0.0,2855,2019-04-29 17:34:19:323
-0.96,0.6,9.84,-0.13,0.66,-0.07,-0.01,0.0,0.0,2856,2019-04-29 17:34:19:324
-0.96,0.6,9.84,-0.13,0.66,-0.07,-0.01,0.0,0.0,2860,2019-04-29 17:34:19:328
-0.96,0.6,9.84,-0.13,0.66,-0.07,-0.01,0.0,0.0,2864,2019-04-29 17:34:19:332
-0.96,0.6,9.84,-0.13,0.66,-0.07,-0.01,0.0,0.0,2870,2019-04-29 17:34:19:338
-1.08,-0.01,9.81,-0.25,-0.04,-0.09,0.0,0.0,0.01,2878,2019-04-29 17:34:19:346
-1.08,-0.01,9.81,-0.25,-0.04,-0.09,0.0,0.0,0.01,2880,2019-04-29 17:34:19:348
-1.08,-0.01,9.81,-0.25,-0.04,-0.09,0.0,0.0,0.01,2885,2019-04-29 17:34:19:353
-1.08,-0.01,9.81,-0.25,-0.04,-0.09,0.0,0.0,0.01,2889,2019-04-29 17:34:19:357
-1.08,-0.01,9.81,-0.25,-0.04,-0.09,0.0,0.0,0.01,2896,2019-04-29 17:34:19:364
-1.08,-0.01,9.81,-0.25,-0.04,-0.09,0.0,0.0,0.01,2899,2019-04-29 17:34:19:367
-1.03,-0.64,10.03,-0.23,-0.75,0.1,-0.01,0.0,0.06,2905,2019-04-29 17:34:19:373
-1.03,-0.64,10.03,-0.23,-0.75,0.1,-0.01,0.0,0.06,2910,2019-04-29 17:34:19:378
-1.03,-0.64,10.03,-0.23,-0.75,0.1,-0.01,0.0,0.06,2915,2019-04-29 17:34:19:383
-1.03,-0.64,10.03,-0.23,-0.75,0.1,-0.01,0.0,0.06,2920,2019-04-29 17:34:19:388
-1.03,-0.64,10.03,-0.23,-0.75,0.1,-0.01,0.0,0.06,2925,2019-04-29 17:34:19:393
-1.03,-0.64,10.03,-0.23,-0.75,0.1,-0.01,0.0,0.06,2929,2019-04-29 17:34:19:397
-1.06,-1.14,9.72,-0.24,-1.2,-0.19,0.0,0.0,0.07,2934,2019-04-29 17:34:19:402
-1.06,-1.14,9.72,-0.24,-1.2,-0.19,0.0,0.0,0.07,2939,2019-04-29 17:34:19:407
-1.06,-1.14,9.72,-0.24,-1.2,-0.19,0.01,0.0,0.06,2945,2019-04-29 17:34:19:413
-1.06,-1.14,9.72,-0.24,-1.2,-0.19,0.01,0.0,0.06,2951,2019-04-29 17:34:19:419
-1.06,-1.14,9.72,-0.24,-1.2,-0.19,0.01,0.0,0.06,2954,2019-04-29 17:34:19:422
-1.06,-1.14,9.72,-0.24,-1.2,-0.19,0.01,0.0,0.06,2959,2019-04-29 17:34:19:427
-0.87,-1.15,10.16,0.03,-1.02,0.27,0.0,0.0,0.08,2964,2019-04-29 17:34:19:432
-0.87,-1.15,10.16,0.03,-1.02,0.27,0.0,0.0,0.08,2969,2019-04-29 17:34:19:437
-0.87,-1.15,10.16,0.03,-1.02,0.27,0.0,0.0,0.08,2974,2019-04-29 17:34:19:442
-0.87,-1.15,10.16,0.03,-1.02,0.27,0.0,0.0,0.08,2979,2019-04-29 17:34:19:447
-0.56,-0.72,9.83,0.36,-0.43,-0.06,0.01,0.0,0.08,2984,2019-04-29 17:34:19:452
-0.56,-0.72,9.83,0.36,-0.43,-0.06,0.01,0.0,0.08,2991,2019-04-29 17:34:19:459
-0.56,-0.72,9.83,0.36,-0.43,-0.06,0.01,0.0,0.08,2996,2019-04-29 17:34:19:464
-0.56,-0.72,9.83,0.36,-0.43,-0.06,0.01,0.0,0.08,3000,2019-04-29 17:34:19:468
-0.54,-0.99,9.73,0.38,-0.56,-0.16,0.02,0.0,0.08,3004,2019-04-29 17:34:19:472
-0.54,-0.99,9.73,0.38,-0.56,-0.16,0.02,0.0,0.08,3010,2019-04-29 17:34:19:478
-0.54,-0.99,9.73,0.38,-0.56,-0.16,0.02,0.0,0.08,3014,2019-04-29 17:34:19:482
-0.54,-0.99,9.73,0.38,-0.56,-0.16,0.02,0.0,0.08,3019,2019-04-29 17:34:19:487
-0.54,-0.99,9.73,0.38,-0.56,-0.16,0.02,0.0,0.08,3025,2019-04-29 17:34:19:493
-0.54,-0.99,9.73,0.38,-0.56,-0.16,0.02,0.0,0.08,3029,2019-04-29 17:34:19:497
-0.45,-0.68,9.92,0.46,-0.09,0.0,0.0,0.0,0.06,3036,2019-04-29 17:34:19:504
-0.45,-0.68,9.92,0.46,-0.09,0.0,0.0,0.0,0.06,3042,2019-04-29 17:34:19:510
-0.45,-0.68,9.92,0.46,-0.09,0.0,0.0,0.0,0.06,3045,2019-04-29 17:34:19:513
-0.45,-0.68,9.92,0.46,-0.09,0.0,0.0,0.0,0.06,3052,2019-04-29 17:34:19:520
-0.45,-0.68,9.92,0.46,-0.09,0.0,0.0,0.0,0.06,3054,2019-04-29 17:34:19:522
-0.45,-0.68,9.92,0.46,-0.09,0.0,0.0,0.0,0.06,3059,2019-04-29 17:34:19:527
-0.63,-0.03,10.36,0.28,0.71,0.37,0.02,0.0,0.02,3065,2019-04-29 17:34:19:533
-0.63,-0.03,10.36,0.28,0.71,0.37,0.02,0.0,0.02,3070,2019-04-29 17:34:19:538
-0.63,-0.03,10.36,0.28,0.71,0.37,0.02,0.0,0.02,3077,2019-04-29 17:34:19:545
-0.63,-0.03,10.36,0.28,0.71,0.37,0.02,0.0,0.02,3079,2019-04-29 17:34:19:547
-0.63,-0.03,10.36,0.28,0.71,0.37,0.02,0.0,0.02,3084,2019-04-29 17:34:19:552
-0.63,-0.03,10.36,0.28,0.71,0.37,0.02,0.0,0.02,3090,2019-04-29 17:34:19:558
-1.09,0.35,9.28,-0.19,1.06,-0.65,0.02,0.0,0.0,3095,2019-04-29 17:34:19:563
-1.09,0.35,9.28,-0.19,1.06,-0.65,0.02,0.0,0.0,3101,2019-04-29 17:34:19:569
-1.09,0.35,9.28,-0.19,1.06,-0.65,0.02,0.0,0.0,3106,2019-04-29 17:34:19:574
-1.09,0.35,9.28,-0.19,1.06,-0.65,0.02,0.0,0.0,3109,2019-04-29 17:34:19:577
-1.09,0.35,9.28,-0.19,1.06,-0.65,0.02,0.0,0.0,3114,2019-04-29 17:34:19:582
-1.22,-0.22,10.12,-0.34,0.43,0.16,-0.02,0.0,0.0,3120,2019-04-29 17:34:19:588
-1.22,-0.22,10.12,-0.34,0.43,0.16,-0.02,0.0,0.0,3125,2019-04-29 17:34:19:593
-1.22,-0.22,10.12,-0.34,0.43,0.16,-0.02,0.0,0.0,3130,2019-04-29 17:34:19:598
-1.22,-0.22,10.12,-0.34,0.43,0.16,-0.02,0.0,0.0,3134,2019-04-29 17:34:19:602
-1.23,0.17,9.95,-0.39,0.67,-0.01,0.0,0.0,0.02,3139,2019-04-29 17:34:19:607
-1.23,0.17,9.95,-0.39,0.67,-0.01,0.0,0.0,0.02,3145,2019-04-29 17:34:19:613
-1.23,0.17,9.95,-0.39,0.67,-0.01,0.0,0.0,0.02,3150,2019-04-29 17:34:19:618
-1.23,0.17,9.95,-0.39,0.67,-0.01,0.0,0.0,0.02,3155,2019-04-29 17:34:19:623
-1.23,0.17,9.95,-0.39,0.67,-0.01,0.0,0.0,0.02,3160,2019-04-29 17:34:19:628
-1.23,0.17,9.95,-0.39,0.67,-0.01,0.0,0.0,0.02,3165,2019-04-29 17:34:19:633
-1.23,0.17,9.95,-0.39,0.67,-0.01,0.0,0.0,0.02,3169,2019-04-29 17:34:19:637
-1.14,-0.01,9.7,-0.36,0.24,-0.3,0.0,0.0,0.03,3174,2019-04-29 17:34:19:642
-1.14,-0.01,9.7,-0.36,0.24,-0.3,0.0,0.0,0.03,3179,2019-04-29 17:34:19:647
-1.14,-0.01,9.7,-0.36,0.24,-0.3,-0.02,0.0,0.02,3184,2019-04-29 17:34:19:652
-1.14,-0.01,9.7,-0.36,0.24,-0.3,-0.02,0.0,0.02,3192,2019-04-29 17:34:19:660
-1.14,-0.01,9.7,-0.36,0.24,-0.3,-0.02,0.0,0.02,3194,2019-04-29 17:34:19:662
-1.14,-0.01,9.7,-0.36,0.24,-0.3,-0.02,0.0,0.02,3199,2019-04-29 17:34:19:667
-1.14,-0.01,9.7,-0.36,0.24,-0.3,-0.02,0.0,0.02,3204,2019-04-29 17:34:19:672
-1.14,-0.01,9.7,-0.36,0.24,-0.3,-0.02,0.0,0.02,3209,2019-04-29 17:34:19:677
-0.85,0.05,10.15,-0.05,0.09,0.13,-0.01,0.0,0.02,3214,2019-04-29 17:34:19:682
-0.85,0.05,10.15,-0.05,0.09,0.13,-0.01,0.0,0.02,3219,2019-04-29 17:34:19:687
-0.85,0.05,10.15,-0.05,0.09,0.13,-0.01,0.0,0.02,3224,2019-04-29 17:34:19:692
-0.53,-0.17,9.83,0.27,-0.2,-0.2,0.0,0.0,0.0,3230,2019-04-29 17:34:19:698
-0.53,-0.17,9.83,0.27,-0.2,-0.2,0.0,0.0,0.0,3234,2019-04-29 17:34:19:702
-0.53,-0.17,9.83,0.27,-0.2,-0.2,0.0,0.0,0.0,3240,2019-04-29 17:34:19:708
-0.53,-0.17,9.83,0.27,-0.2,-0.2,0.0,0.0,0.0,3245,2019-04-29 17:34:19:713
-0.53,-0.17,9.83,0.27,-0.2,-0.2,0.0,0.0,0.0,3249,2019-04-29 17:34:19:717
-0.12,-0.49,9.75,0.67,-0.52,-0.22,-0.01,0.0,-0.02,3254,2019-04-29 17:34:19:722
-0.12,-0.49,9.75,0.67,-0.52,-0.22,-0.01,0.0,-0.02,3261,2019-04-29 17:34:19:729
-0.12,-0.49,9.75,0.67,-0.52,-0.22,-0.01,0.0,-0.02,3265,2019-04-29 17:34:19:733
-0.12,-0.49,9.75,0.67,-0.52,-0.22,-0.01,0.0,-0.02,3270,2019-04-29 17:34:19:738
-0.16,-0.66,9.82,0.62,-0.63,-0.11,-0.01,0.0,-0.05,3275,2019-04-29 17:34:19:743
-0.16,-0.66,9.82,0.62,-0.63,-0.11,-0.01,0.0,-0.05,3279,2019-04-29 17:34:19:747
-0.16,-0.66,9.82,0.62,-0.63,-0.11,-0.01,0.0,-0.05,3284,2019-04-29 17:34:19:752
-0.16,-0.66,9.82,0.62,-0.63,-0.11,-0.01,0.0,-0.05,3290,2019-04-29 17:34:19:758
-0.25,-1.14,10.08,0.51,-0.97,0.09,-0.01,0.01,-0.07,3294,2019-04-29 17:34:19:762
-0.25,-1.14,10.08,0.51,-0.97,0.09,-0.01,0.01,-0.07,3300,2019-04-29 17:34:19:768
-0.25,-1.14,10.08,0.51,-0.97,0.09,-0.01,0.01,-0.07,3305,2019-04-29 17:34:19:773
-0.25,-1.14,10.08,0.51,-0.97,0.09,-0.01,0.01,-0.07,3310,2019-04-29 17:34:19:778
-0.61,-1.59,9.85,0.14,-1.27,-0.1,-0.01,0.01,-0.08,3315,2019-04-29 17:34:19:783
-0.61,-1.59,9.85,0.14,-1.27,-0.1,-0.01,0.01,-0.08,3321,2019-04-29 17:34:19:789
-0.61,-1.59,9.85,0.14,-1.27,-0.1,-0.01,0.01,-0.08,3324,2019-04-29 17:34:19:792
-0.61,-1.59,9.85,0.14,-1.27,-0.1,-0.01,0.01,-0.08,3330,2019-04-29 17:34:19:798
-0.78,-1.7,10.06,0.0,-1.19,0.07,-0.01,0.01,-0.09,3337,2019-04-29 17:34:19:805
-0.78,-1.7,10.06,0.0,-1.19,0.07,-0.01,0.01,-0.09,3339,2019-04-29 17:34:19:807
-0.78,-1.7,10.06,0.0,-1.19,0.07,-0.01,0.01,-0.09,3344,2019-04-29 17:34:19:812
-0.78,-1.7,10.06,0.0,-1.19,0.07,-0.01,0.01,-0.09,3350,2019-04-29 17:34:19:818
-1.54,-1.54,10.36,-0.75,-0.85,0.39,0.0,0.0,-0.08,3355,2019-04-29 17:34:19:823
-1.54,-1.54,10.36,-0.75,-0.85,0.39,0.0,0.0,-0.08,3359,2019-04-29 17:34:19:827
-1.54,-1.54,10.36,-0.75,-0.85,0.39,0.0,0.0,-0.08,3364,2019-04-29 17:34:19:832
-1.54,-1.54,10.36,-0.75,-0.85,0.39,0.0,0.0,-0.08,3369,2019-04-29 17:34:19:837
-1.61,-1.53,9.91,-0.77,-0.69,-0.02,-0.01,0.0,-0.06,3377,2019-04-29 17:34:19:845
-1.61,-1.53,9.91,-0.77,-0.69,-0.02,-0.01,0.0,-0.06,3380,2019-04-29 17:34:19:848
-1.61,-1.53,9.91,-0.77,-0.69,-0.02,-0.01,0.0,-0.06,3385,2019-04-29 17:34:19:853
-1.61,-1.53,9.91,-0.77,-0.69,-0.02,-0.01,0.0,-0.06,3390,2019-04-29 17:34:19:858
-1.9,-0.96,10.03,-1.03,0.0,0.05,-0.02,0.0,-0.03,3397,2019-04-29 17:34:19:865
-1.9,-0.96,10.03,-1.03,0.0,0.05,-0.02,0.0,-0.03,3401,2019-04-29 17:34:19:869
-1.9,-0.96,10.03,-1.03,0.0,0.05,-0.02,0.0,-0.03,3406,2019-04-29 17:34:19:874
-1.9,-0.96,10.03,-1.03,0.0,0.05,-0.02,0.0,-0.03,3409,2019-04-29 17:34:19:877
-1.63,-0.91,9.87,-0.71,0.12,-0.08,-0.01,0.0,0.0,3418,2019-04-29 17:34:19:886
-1.63,-0.91,9.87,-0.71,0.12,-0.08,-0.01,0.0,0.0,3420,2019-04-29 17:34:19:888
-1.63,-0.91,9.87,-0.71,0.12,-0.08,0.0,-0.01,0.01,3424,2019-04-29 17:34:19:892
-0.4,-0.37,10.07,0.49,0.72,0.1,0.0,-0.01,0.01,3429,2019-04-29 17:34:19:897
-0.4,-0.37,10.07,0.49,0.72,0.1,0.0,-0.01,0.01,3434,2019-04-29 17:34:19:902
-0.4,-0.37,10.07,0.49,0.72,0.1,0.0,-0.01,0.01,3441,2019-04-29 17:34:19:909
-0.4,-0.37,10.07,0.49,0.72,0.1,0.0,-0.01,0.01,3446,2019-04-29 17:34:19:914
-0.4,-0.37,10.07,0.49,0.72,0.1,0.0,-0.01,0.01,3449,2019-04-29 17:34:19:917
-0.77,-0.57,10.02,0.15,0.52,0.04,-0.01,0.0,0.02,3454,2019-04-29 17:34:19:922
-0.77,-0.57,10.02,0.15,0.52,0.04,-0.01,0.0,0.02,3460,2019-04-29 17:34:19:928
-0.44,-1.77,6.42,0.53,-0.79,-3.42,0.05,0.0,0.03,3464,2019-04-29 17:34:19:932
-0.44,-1.77,6.42,0.53,-0.79,-3.42,0.05,0.0,0.03,3470,2019-04-29 17:34:19:938
-0.44,-1.77,6.42,0.53,-0.79,-3.42,0.05,0.0,0.03,3475,2019-04-29 17:34:19:943
-0.44,-1.77,6.42,0.53,-0.79,-3.42,0.05,0.0,0.03,3480,2019-04-29 17:34:19:948
-0.44,-1.77,6.42,0.53,-0.79,-3.42,0.05,0.0,0.03,3485,2019-04-29 17:34:19:953
-0.44,-1.77,6.42,0.53,-0.79,-3.42,0.05,0.0,0.03,3490,2019-04-29 17:34:19:958
-0.14,-0.5,9.06,0.83,0.44,-0.73,-0.04,0.0,0.09,3495,2019-04-29 17:34:19:963
-0.14,-0.5,9.06,0.83,0.44,-0.73,-0.04,0.0,0.09,3500,2019-04-29 17:34:19:968
-0.14,-0.5,9.06,0.83,0.44,-0.73,-0.04,0.0,0.09,3504,2019-04-29 17:34:19:972
-0.14,-0.5,9.06,0.83,0.44,-0.73,-0.04,0.0,0.09,3509,2019-04-29 17:34:19:977
0.03,-0.28,12.16,0.99,0.53,2.23,-0.07,0.0,0.02,3514,2019-04-29 17:34:19:982
0.03,-0.28,12.16,0.99,0.53,2.23,-0.07,0.0,0.02,3519,2019-04-29 17:34:19:987
0.03,-0.28,12.16,0.99,0.53,2.23,-0.07,0.0,0.02,3526,2019-04-29 17:34:19:994
0.03,-0.28,12.16,0.99,0.53,2.23,-0.07,0.0,0.02,3530,2019-04-29 17:34:19:998
-0.65,-0.77,10.0,0.29,-0.11,-0.05,0.0,0.03,0.01,3535,2019-04-29 17:34:20:003
-0.65,-0.77,10.0,0.29,-0.11,-0.05,0.0,0.03,0.01,3540,2019-04-29 17:34:20:008
-1.29,-0.3,10.02,-0.38,0.16,0.09,0.03,0.0,-0.05,3545,2019-04-29 17:34:20:013
-1.29,-0.3,10.02,-0.38,0.16,0.09,0.03,0.0,-0.05,3549,2019-04-29 17:34:20:017
-1.29,-0.3,10.02,-0.38,0.16,0.09,0.03,0.0,-0.05,3555,2019-04-29 17:34:20:023
-1.29,-0.3,10.02,-0.38,0.16,0.09,0.03,0.0,-0.05,3560,2019-04-29 17:34:20:028
-1.29,-0.3,10.02,-0.38,0.16,0.09,0.03,0.0,-0.05,3567,2019-04-29 17:34:20:035
-1.29,-0.3,10.02,-0.38,0.16,0.09,0.03,0.0,-0.05,3569,2019-04-29 17:34:20:037
-1.27,-0.48,9.97,-0.37,-0.05,0.04,-0.02,0.01,-0.08,3574,2019-04-29 17:34:20:042
-1.27,-0.48,9.97,-0.37,-0.05,0.04,-0.02,0.01,-0.08,3582,2019-04-29 17:34:20:050
-1.27,-0.48,9.97,-0.37,-0.05,0.04,-0.02,0.01,-0.08,3585,2019-04-29 17:34:20:053
-1.27,-0.48,9.97,-0.37,-0.05,0.04,-0.02,0.01,-0.08,3590,2019-04-29 17:34:20:058
-1.38,-0.18,9.84,-0.53,0.16,-0.09,-0.02,0.0,-0.06,3596,2019-04-29 17:34:20:064
-1.38,-0.18,9.84,-0.53,0.16,-0.09,-0.02,0.0,-0.06,3599,2019-04-29 17:34:20:067
-1.38,-0.18,9.84,-0.53,0.16,-0.09,-0.02,0.0,-0.06,3605,2019-04-29 17:34:20:073
-1.38,-0.18,9.84,-0.53,0.16,-0.09,-0.02,0.0,-0.06,3609,2019-04-29 17:34:20:077
-1.38,-0.1,10.12,-0.53,0.16,-0.09,-0.02,0.0,-0.06,3615,2019-04-29 17:34:20:083
-1.92,-0.1,10.12,-1.1,0.16,0.17,0.0,0.0,-0.05,3619,2019-04-29 17:34:20:087
-1.92,-0.1,10.12,-1.1,0.16,0.17,0.0,0.0,-0.05,3625,2019-04-29 17:34:20:093
-1.92,-0.1,10.12,-1.1,0.16,0.17,0.0,0.0,-0.05,3630,2019-04-29 17:34:20:098
-1.72,-0.12,9.52,-0.9,0.04,-0.37,0.0,0.0,-0.03,3634,2019-04-29 17:34:20:102
-1.72,-0.12,9.52,-0.9,0.04,-0.37,0.0,0.0,-0.03,3640,2019-04-29 17:34:20:108
-1.72,-0.12,9.52,-0.9,0.04,-0.37,0.0,0.0,-0.03,3645,2019-04-29 17:34:20:113
-1.72,-0.12,9.52,-0.9,0.04,-0.37,0.0,0.0,-0.03,3649,2019-04-29 17:34:20:117
-1.7,0.3,10.23,-0.84,0.39,0.27,-0.01,0.0,-0.01,3654,2019-04-29 17:34:20:122
-1.7,0.3,10.23,-0.84,0.39,0.27,-0.01,0.0,-0.01,3659,2019-04-29 17:34:20:127
-1.32,-0.22,9.5,-0.84,0.39,0.27,0.01,0.0,0.01,3664,2019-04-29 17:34:20:132
-1.32,-0.22,9.5,-0.84,0.39,0.27,0.01,0.0,0.01,3669,2019-04-29 17:34:20:137
-1.32,-0.22,9.5,-0.84,0.39,0.27,0.01,0.0,0.01,3674,2019-04-29 17:34:20:142
-1.32,-0.22,9.5,-0.84,0.39,0.27,0.01,0.0,0.01,3680,2019-04-29 17:34:20:148
-1.03,0.22,9.71,-0.16,0.22,-0.37,0.01,0.0,0.01,3684,2019-04-29 17:34:20:152
-1.03,0.22,9.71,-0.16,0.22,-0.37,0.01,0.0,0.01,3690,2019-04-29 17:34:20:158
-1.03,0.22,9.71,-0.16,0.22,-0.37,0.01,0.0,0.01,3695,2019-04-29 17:34:20:163
-1.03,0.22,9.71,-0.16,0.22,-0.37,0.01,0.0,0.01,3699,2019-04-29 17:34:20:167
-1.03,0.22,9.71,-0.16,0.22,-0.37,0.01,0.0,0.01,3704,2019-04-29 17:34:20:172
-1.03,0.22,9.71,-0.16,0.22,-0.37,0.01,0.0,0.01,3710,2019-04-29 17:34:20:178
-0.62,-0.37,9.91,0.27,-0.38,-0.05,-0.02,0.01,0.03,3715,2019-04-29 17:34:20:183
-0.62,-0.37,9.91,0.27,-0.38,-0.05,-0.02,0.01,0.03,3719,2019-04-29 17:34:20:187
-0.62,-0.37,9.91,0.27,-0.38,-0.05,-0.02,0.01,0.03,3725,2019-04-29 17:34:20:193
-0.62,-0.37,9.91,0.27,-0.38,-0.05,-0.02,0.01,0.03,3729,2019-04-29 17:34:20:197
-0.13,0.38,10.81,0.79,0.38,0.97,0.01,0.02,0.04,3734,2019-04-29 17:34:20:202
-0.13,0.38,10.81,0.79,0.38,0.97,0.01,0.02,0.04,3739,2019-04-29 17:34:20:207
-1.92,-0.05,11.56,-0.91,-0.11,1.5,0.02,0.0,0.06,3745,2019-04-29 17:34:20:213
-1.92,-0.05,11.56,-0.91,-0.11,1.5,0.02,0.0,0.06,3749,2019-04-29 17:34:20:217
-1.92,-0.05,11.56,-0.91,-0.11,1.5,0.02,0.0,0.06,3754,2019-04-29 17:34:20:222
-1.92,-0.05,11.56,-0.91,-0.11,1.5,0.02,0.0,0.06,3760,2019-04-29 17:34:20:228
-1.92,-0.05,11.56,-0.91,-0.11,1.5,0.02,0.0,0.06,3765,2019-04-29 17:34:20:233
-0.67,-0.76,10.24,0.29,-0.81,0.16,-0.02,0.0,0.1,3770,2019-04-29 17:34:20:238
-0.67,-0.76,10.24,0.29,-0.81,0.16,-0.02,0.0,0.1,3774,2019-04-29 17:34:20:242
-0.67,-0.76,10.24,0.29,-0.81,0.16,-0.02,0.0,0.1,3780,2019-04-29 17:34:20:248
-1.53,-0.59,9.77,-0.51,-0.6,-0.2,0.06,-0.01,0.17,3784,2019-04-29 17:34:20:252
-1.53,-0.59,9.77,-0.51,-0.6,-0.2,0.06,-0.01,0.17,3790,2019-04-29 17:34:20:258
-1.53,-0.59,9.77,-0.51,-0.6,-0.2,0.06,-0.01,0.17,3795,2019-04-29 17:34:20:263
-1.53,-0.59,9.77,-0.51,-0.6,-0.2,0.06,-0.01,0.17,3800,2019-04-29 17:34:20:268
-1.53,-0.59,9.77,-0.51,-0.6,-0.2,0.06,-0.01,0.17,3805,2019-04-29 17:34:20:273
-1.53,-0.59,9.77,-0.51,-0.6,-0.2,0.06,-0.01,0.17,3809,2019-04-29 17:34:20:277
-1.87,-0.54,9.82,-0.82,-0.5,-0.12,0.05,-0.04,0.24,3814,2019-04-29 17:34:20:282
-1.87,-0.54,9.82,-0.82,-0.5,-0.12,0.05,-0.04,0.24,3819,2019-04-29 17:34:20:287
-1.87,-0.54,9.82,-0.82,-0.5,-0.12,0.05,-0.04,0.24,3824,2019-04-29 17:34:20:292
-1.87,-0.54,9.82,-0.82,-0.5,-0.12,0.05,-0.04,0.24,3830,2019-04-29 17:34:20:298
-1.55,-1.76,9.55,-0.52,-1.57,-0.43,-0.01,-0.04,0.29,3835,2019-04-29 17:34:20:303
-1.55,-1.76,9.55,-0.52,-1.57,-0.43,-0.01,-0.04,0.29,3839,2019-04-29 17:34:20:307
-1.55,-1.76,9.55,-0.52,-1.57,-0.43,-0.01,-0.04,0.29,3844,2019-04-29 17:34:20:312
-1.55,-1.76,9.55,-0.52,-1.57,-0.43,-0.01,-0.04,0.29,3849,2019-04-29 17:34:20:317
-0.92,-2.02,9.95,0.08,-1.61,0.03,0.01,-0.03,0.31,3854,2019-04-29 17:34:20:322
-0.92,-2.02,9.95,0.08,-1.61,0.03,0.01,-0.03,0.31,3859,2019-04-29 17:34:20:327
-0.92,-2.02,9.95,0.08,-1.61,0.03,0.01,-0.03,0.31,3864,2019-04-29 17:34:20:332
-0.92,-2.02,9.95,0.08,-1.61,0.03,0.01,-0.03,0.31,3869,2019-04-29 17:34:20:337
-0.59,-2.25,10.13,0.37,-1.64,0.18,0.04,-0.04,0.3,3874,2019-04-29 17:34:20:342
-0.59,-2.25,10.13,0.37,-1.64,0.18,0.04,-0.04,0.3,3880,2019-04-29 17:34:20:348
-0.71,-2.1,10.13,0.37,-1.64,0.18,-0.01,-0.02,0.29,3885,2019-04-29 17:34:20:353
-0.71,-2.1,10.13,0.2,-1.16,0.16,-0.01,-0.02,0.29,3890,2019-04-29 17:34:20:358
-0.71,-2.1,10.13,0.2,-1.16,0.16,-0.01,-0.02,0.29,3895,2019-04-29 17:34:20:363
-0.71,-2.1,10.13,0.2,-1.16,0.16,-0.01,-0.02,0.29,3899,2019-04-29 17:34:20:367
-0.71,-2.1,10.13,0.2,-1.16,0.16,-0.01,-0.02,0.29,3904,2019-04-29 17:34:20:372
-0.71,-2.1,10.13,0.2,-1.16,0.16,-0.01,-0.02,0.29,3909,2019-04-29 17:34:20:377
-0.98,-1.92,10.51,-0.04,-0.9,0.52,0.01,-0.02,0.29,3914,2019-04-29 17:34:20:382
-0.98,-1.92,10.51,-0.04,-0.9,0.52,0.01,-0.02,0.29,3919,2019-04-29 17:34:20:387
-0.98,-1.92,10.51,-0.04,-0.9,0.52,0.01,-0.02,0.29,3925,2019-04-29 17:34:20:393
-0.98,-1.92,10.51,-0.04,-0.9,0.52,0.01,-0.02,0.29,3929,2019-04-29 17:34:20:397
-1.02,-1.85,9.98,-0.07,-0.66,0.02,0.06,-0.01,0.29,3935,2019-04-29 17:34:20:403
-1.02,-1.85,9.98,-0.07,-0.66,0.02,0.06,-0.01,0.29,3940,2019-04-29 17:34:20:408
-1.02,-1.85,9.98,0.26,0.38,-0.66,0.0,0.0,0.28,3944,2019-04-29 17:34:20:412
-0.69,-0.95,9.24,0.26,0.38,-0.66,0.0,0.0,0.28,3949,2019-04-29 17:34:20:417
-0.69,-0.95,9.24,0.26,0.38,-0.66,0.0,0.0,0.28,3955,2019-04-29 17:34:20:423
-0.69,-0.95,9.24,0.26,0.38,-0.66,0.0,0.0,0.28,3959,2019-04-29 17:34:20:427
-0.43,-1.43,10.49,0.5,0.0,0.66,0.01,-0.01,0.26,3964,2019-04-29 17:34:20:432
-0.43,-1.43,10.49,0.5,0.0,0.66,0.01,-0.01,0.26,3969,2019-04-29 17:34:20:437
-0.43,-1.43,10.49,0.5,0.0,0.66,0.01,-0.01,0.26,3974,2019-04-29 17:34:20:442
-0.43,-1.43,10.49,0.5,0.0,0.66,0.01,-0.01,0.26,3980,2019-04-29 17:34:20:448
-0.43,-1.43,10.49,0.5,0.0,0.66,0.01,-0.01,0.26,3985,2019-04-29 17:34:20:453
-0.43,-1.43,10.49,0.5,0.0,0.66,0.01,-0.01,0.26,3989,2019-04-29 17:34:20:457
-0.22,-1.71,10.05,0.65,-0.16,0.16,0.03,-0.01,0.25,3994,2019-04-29 17:34:20:462
-0.22,-1.71,10.05,0.65,-0.16,0.16,0.03,-0.01,0.25,3999,2019-04-29 17:34:20:467
-0.22,-1.71,10.05,0.65,-0.16,0.16,0.03,-0.01,0.25,4005,2019-04-29 17:34:20:473
-0.22,-1.71,10.05,0.65,-0.16,0.16,0.03,-0.01,0.25,4009,2019-04-29 17:34:20:477
-0.55,-1.88,9.84,0.23,-0.16,-0.08,0.0,-0.01,0.22,4014,2019-04-29 17:34:20:482
-0.55,-1.88,9.84,0.23,-0.16,-0.08,0.0,-0.01,0.22,4019,2019-04-29 17:34:20:487
-0.55,-1.88,9.84,0.3,0.23,-0.38,0.05,-0.01,0.2,4025,2019-04-29 17:34:20:493
-0.55,-1.88,9.84,0.3,0.23,-0.38,0.05,-0.01,0.2,4030,2019-04-29 17:34:20:498
-0.55,-1.88,9.84,0.3,0.23,-0.38,0.05,-0.01,0.2,4035,2019-04-29 17:34:20:503
-0.55,-1.88,9.84,0.3,0.23,-0.38,0.05,-0.01,0.2,4040,2019-04-29 17:34:20:508
-1.03,-1.49,9.44,-0.27,0.22,-0.43,0.04,0.0,0.16,4045,2019-04-29 17:34:20:513
-1.03,-1.49,9.44,-0.27,0.22,-0.43,0.04,0.0,0.16,4049,2019-04-29 17:34:20:517
-1.03,-1.49,9.44,-0.27,0.22,-0.43,0.04,0.0,0.16,4054,2019-04-29 17:34:20:522
-1.03,-1.49,9.44,-0.27,0.22,-0.43,0.04,0.0,0.16,4059,2019-04-29 17:34:20:527
-1.19,-0.88,9.62,-0.39,0.76,-0.27,0.0,0.0,0.11,4064,2019-04-29 17:34:20:532
-1.19,-0.88,9.62,-0.39,0.76,-0.27,0.0,0.0,0.11,4070,2019-04-29 17:34:20:538
-1.19,-0.88,9.62,-0.39,0.76,-0.27,0.0,0.0,0.11,4075,2019-04-29 17:34:20:543
-1.19,-0.88,9.62,-0.39,0.76,-0.27,0.0,0.0,0.11,4080,2019-04-29 17:34:20:548
-1.19,-0.88,9.62,-0.39,0.76,-0.27,0.0,0.0,0.11,4084,2019-04-29 17:34:20:552
-1.49,-0.73,10.21,-0.61,0.78,0.31,0.04,0.0,0.09,4092,2019-04-29 17:34:20:560
-1.49,-0.73,10.21,-0.61,0.78,0.31,0.04,0.0,0.09,4095,2019-04-29 17:34:20:563
-1.49,-0.73,10.21,-0.61,0.78,0.31,0.04,0.0,0.09,4099,2019-04-29 17:34:20:567
-1.49,-0.73,10.21,-0.61,0.78,0.31,0.04,0.0,0.07,4104,2019-04-29 17:34:20:572
-1.49,-0.73,10.21,-0.61,0.78,0.31,0.04,0.0,0.07,4109,2019-04-29 17:34:20:577
-1.49,-0.73,10.21,-0.61,0.78,0.31,0.04,0.0,0.07,4115,2019-04-29 17:34:20:583
-1.49,-0.73,10.21,-0.61,0.78,0.31,0.04,0.0,0.07,4119,2019-04-29 17:34:20:587
-1.08,0.85,9.6,-0.19,1.9,-0.24,0.0,0.0,0.08,4125,2019-04-29 17:34:20:593
-1.08,0.85,9.6,-0.19,1.9,-0.24,0.0,0.0,0.08,4130,2019-04-29 17:34:20:598
-1.08,0.85,9.6,-0.19,1.9,-0.24,0.0,0.0,0.08,4135,2019-04-29 17:34:20:603
-1.08,0.85,9.6,-0.19,1.9,-0.24,0.0,0.0,0.08,4140,2019-04-29 17:34:20:608
-1.08,0.85,9.6,-0.19,1.9,-0.24,0.0,0.0,0.08,4145,2019-04-29 17:34:20:613
-1.08,0.85,9.6,-0.19,1.9,-0.24,0.0,0.0,0.08,4150,2019-04-29 17:34:20:618
-0.76,1.22,10.13,0.09,2.01,0.24,0.0,0.0,0.1,4154,2019-04-29 17:34:20:622
-0.76,1.22,10.13,0.09,2.01,0.24,0.0,0.0,0.1,4160,2019-04-29 17:34:20:628
-0.76,1.22,10.13,0.09,2.01,0.24,0.0,0.0,0.1,4167,2019-04-29 17:34:20:635
-0.76,1.22,10.13,0.09,2.01,0.24,0.0,0.0,0.1,4169,2019-04-29 17:34:20:637
-0.78,1.84,9.54,0.09,2.01,0.24,0.02,0.0,0.11,4174,2019-04-29 17:34:20:642
-0.78,1.84,9.54,0.05,2.3,-0.28,0.02,0.0,0.11,4180,2019-04-29 17:34:20:648
-0.78,1.84,9.54,0.05,2.3,-0.28,0.02,0.0,0.11,4185,2019-04-29 17:34:20:653
-0.78,1.84,9.54,0.05,2.3,-0.28,0.02,0.0,0.11,4189,2019-04-29 17:34:20:657
-0.6,1.79,9.75,0.25,1.92,-0.07,-0.03,0.0,0.12,4195,2019-04-29 17:34:20:663
-0.6,1.79,9.75,0.25,1.92,-0.07,-0.03,0.0,0.12,4200,2019-04-29 17:34:20:668
-0.6,1.79,9.75,0.25,1.92,-0.07,-0.05,-0.01,0.13,4204,2019-04-29 17:34:20:672
-0.6,1.79,9.75,0.25,1.92,-0.07,-0.05,-0.01,0.13,4209,2019-04-29 17:34:20:677
-0.6,1.79,9.75,0.25,1.92,-0.07,-0.05,-0.01,0.13,4214,2019-04-29 17:34:20:682
-0.6,1.79,9.75,0.25,1.92,-0.07,-0.05,-0.01,0.13,4220,2019-04-29 17:34:20:688
-0.72,0.14,9.88,0.17,-0.25,0.08,-0.03,-0.01,0.13,4225,2019-04-29 17:34:20:693
-0.72,0.14,9.88,0.17,-0.25,0.08,-0.03,-0.01,0.13,4230,2019-04-29 17:34:20:698
-0.72,0.14,9.88,0.17,-0.25,0.08,-0.03,-0.01,0.13,4234,2019-04-29 17:34:20:702
-0.72,0.14,9.88,0.17,-0.25,0.08,-0.03,-0.01,0.13,4241,2019-04-29 17:34:20:709
-0.87,-0.8,10.13,0.03,-1.27,0.24,-0.04,-0.01,0.15,4244,2019-04-29 17:34:20:712
-0.87,-0.8,10.13,0.03,-1.27,0.24,-0.04,-0.01,0.15,4249,2019-04-29 17:34:20:717
-0.87,-0.8,10.13,0.03,-1.27,0.24,-0.04,-0.01,0.15,4254,2019-04-29 17:34:20:722
-0.87,-0.8,10.13,0.03,-1.27,0.24,-0.04,-0.01,0.15,4259,2019-04-29 17:34:20:727
-1.19,-1.63,10.19,-0.25,-2.09,0.29,-0.02,0.0,0.16,4264,2019-04-29 17:34:20:732
-1.19,-1.63,10.19,-0.25,-2.09,0.29,-0.02,0.0,0.16,4269,2019-04-29 17:34:20:737
-1.19,-1.63,10.19,-0.25,-2.09,0.29,-0.02,0.0,0.16,4274,2019-04-29 17:34:20:742
-1.19,-1.63,10.19,-0.25,-2.09,0.29,-0.02,0.0,0.16,4279,2019-04-29 17:34:20:747
-1.28,-1.94,9.71,-0.35,-2.27,-0.17,0.0,-0.01,0.18,4285,2019-04-29 17:34:20:753
-1.28,-1.94,9.71,-0.35,-2.27,-0.17,0.0,-0.01,0.18,4289,2019-04-29 17:34:20:757
-1.28,-1.94,9.71,-0.35,-2.27,-0.17,-0.01,-0.01,0.21,4294,2019-04-29 17:34:20:762
-1.28,-1.94,9.71,-0.35,-2.27,-0.17,-0.01,-0.01,0.21,4299,2019-04-29 17:34:20:767
-1.28,-1.94,9.71,-0.35,-2.27,-0.17,-0.01,-0.01,0.21,4305,2019-04-29 17:34:20:773
-1.28,-1.94,9.71,-0.35,-2.27,-0.17,-0.01,-0.01,0.21,4309,2019-04-29 17:34:20:777
-0.93,-1.62,9.78,-0.35,-2.27,-0.17,0.01,-0.01,0.22,4315,2019-04-29 17:34:20:783
-0.93,-1.62,9.78,0.0,-1.61,-0.12,0.01,-0.01,0.22,4319,2019-04-29 17:34:20:787
-0.93,-1.62,9.78,0.0,-1.61,-0.12,0.01,-0.01,0.22,4325,2019-04-29 17:34:20:793
-0.93,-1.62,9.78,0.0,-1.61,-0.12,0.01,-0.01,0.22,4330,2019-04-29 17:34:20:798
-0.93,-1.62,9.78,0.0,-1.61,-0.12,0.01,-0.01,0.22,4335,2019-04-29 17:34:20:803
-0.84,-1.38,9.95,0.0,-1.61,-0.12,-0.02,-0.01,0.27,4341,2019-04-29 17:34:20:809
-0.84,-1.38,9.95,-0.13,-1.33,0.28,-0.02,-0.01,0.27,4345,2019-04-29 17:34:20:813
-0.84,-1.38,9.95,-0.13,-1.33,0.28,-0.02,-0.01,0.27,4350,2019-04-29 17:34:20:818
-0.84,-1.38,9.95,-0.13,-1.33,0.28,-0.02,-0.01,0.27,4355,2019-04-29 17:34:20:823
-0.84,-1.38,9.95,-0.13,-1.33,0.28,-0.02,-0.01,0.27,4359,2019-04-29 17:34:20:827
-1.08,-0.49,9.67,-0.14,0.23,-0.24,0.0,-0.01,0.37,4364,2019-04-29 17:34:20:832
-1.08,-0.49,9.67,-0.14,0.23,-0.24,0.0,-0.01,0.37,4369,2019-04-29 17:34:20:837
-1.08,-0.49,9.67,-0.14,0.23,-0.24,0.0,-0.01,0.37,4374,2019-04-29 17:34:20:842
-1.08,-0.49,9.67,-0.14,0.23,-0.24,0.0,-0.01,0.37,4379,2019-04-29 17:34:20:847
-1.08,-0.49,9.67,-0.14,0.23,-0.24,0.0,-0.01,0.37,4384,2019-04-29 17:34:20:852
-1.08,-0.49,9.67,-0.14,0.23,-0.24,0.0,-0.01,0.37,4389,2019-04-29 17:34:20:857
-1.02,-0.72,10.16,-0.04,0.22,0.19,-0.01,-0.02,0.41,4394,2019-04-29 17:34:20:862
-1.02,-0.72,10.16,-0.04,0.22,0.19,-0.01,-0.02,0.41,4399,2019-04-29 17:34:20:867
-1.02,-0.72,10.16,-0.04,0.22,0.19,-0.01,-0.02,0.41,4405,2019-04-29 17:34:20:873
-1.02,-0.72,10.16,-0.04,0.22,0.19,-0.01,-0.02,0.41,4409,2019-04-29 17:34:20:877
-1.09,-0.37,9.57,-0.08,0.65,-0.32,-0.02,-0.02,0.45,4414,2019-04-29 17:34:20:882
-1.09,-0.37,9.57,-0.08,0.65,-0.32,-0.02,-0.02,0.45,4420,2019-04-29 17:34:20:888
-1.09,-0.37,9.57,-0.08,0.65,-0.32,0.0,-0.02,0.49,4425,2019-04-29 17:34:20:893
-1.09,-0.37,9.57,-0.12,0.53,-0.19,0.0,-0.02,0.49,4430,2019-04-29 17:34:20:898
-1.09,-0.37,9.57,-0.12,0.53,-0.19,0.0,-0.02,0.49,4434,2019-04-29 17:34:20:902
-1.09,-0.37,9.57,-0.12,0.53,-0.19,0.0,-0.02,0.49,4439,2019-04-29 17:34:20:907
-0.72,-0.67,10.11,0.3,0.36,0.26,-0.05,-0.04,0.51,4444,2019-04-29 17:34:20:912
-0.72,-0.67,10.11,0.3,0.36,0.26,-0.05,-0.04,0.51,4450,2019-04-29 17:34:20:918
-0.72,-0.67,10.11,0.3,0.36,0.26,-0.05,-0.04,0.51,4454,2019-04-29 17:34:20:922
-0.72,-0.67,10.11,0.3,0.36,0.26,-0.05,-0.04,0.51,4460,2019-04-29 17:34:20:928
-0.72,-0.67,10.11,0.3,0.36,0.26,-0.05,-0.04,0.51,4465,2019-04-29 17:34:20:933
-0.72,-0.67,10.11,0.3,0.36,0.26,-0.05,-0.04,0.51,4470,2019-04-29 17:34:20:938
-0.87,-0.21,9.67,0.14,0.69,-0.13,-0.02,-0.03,0.52,4475,2019-04-29 17:34:20:943
-0.87,-0.21,9.67,0.14,0.69,-0.13,-0.02,-0.03,0.52,4480,2019-04-29 17:34:20:948
-1.13,0.19,9.95,0.14,0.69,-0.13,-0.05,-0.05,0.54,4484,2019-04-29 17:34:20:952
-1.13,0.19,9.95,0.14,0.69,-0.13,-0.05,-0.05,0.54,4489,2019-04-29 17:34:20:957
-1.13,0.19,9.95,0.14,0.69,-0.13,-0.05,-0.05,0.54,4494,2019-04-29 17:34:20:962
-1.13,0.19,9.95,0.14,0.69,-0.13,-0.05,-0.05,0.54,4499,2019-04-29 17:34:20:967
-0.54,0.2,9.5,0.41,0.74,-0.36,0.0,-0.05,0.54,4508,2019-04-29 17:34:20:976
-0.54,0.2,9.5,0.41,0.74,-0.36,0.0,-0.05,0.54,4509,2019-04-29 17:34:20:977
-0.54,0.2,9.5,0.41,0.74,-0.36,0.0,-0.05,0.54,4515,2019-04-29 17:34:20:983
-0.54,0.2,9.5,0.41,0.74,-0.36,0.0,-0.05,0.54,4519,2019-04-29 17:34:20:987
-0.65,0.75,10.42,0.28,1.1,0.51,-0.03,-0.04,0.55,4524,2019-04-29 17:34:20:992
-0.65,0.75,10.42,0.28,1.1,0.51,-0.03,-0.04,0.55,4529,2019-04-29 17:34:20:997
-0.65,0.75,10.42,0.28,1.1,0.51,-0.03,-0.04,0.55,4534,2019-04-29 17:34:21:002
-0.65,0.75,10.42,0.28,1.1,0.51,-0.03,-0.04,0.55,4540,2019-04-29 17:34:21:008
-0.65,0.75,10.42,0.28,1.1,0.51,-0.03,-0.04,0.55,4544,2019-04-29 17:34:21:012
-0.65,0.75,10.42,0.28,1.1,0.51,-0.03,-0.04,0.55,4550,2019-04-29 17:34:21:018
-0.41,0.45,10.39,0.49,0.65,0.42,-0.01,-0.04,0.54,4554,2019-04-29 17:34:21:022
-0.41,0.45,10.39,0.49,0.65,0.42,-0.01,-0.04,0.54,4559,2019-04-29 17:34:21:027
-0.41,0.45,10.39,0.49,0.65,0.42,-0.01,-0.04,0.54,4565,2019-04-29 17:34:21:033
-0.41,0.45,10.39,0.49,0.65,0.42,-0.01,-0.04,0.54,4569,2019-04-29 17:34:21:037
-0.26,0.34,9.76,0.59,0.43,-0.23,0.0,-0.03,0.51,4574,2019-04-29 17:34:21:042
-0.26,0.34,9.76,0.59,0.43,-0.23,0.0,-0.03,0.51,4580,2019-04-29 17:34:21:048
-0.26,0.34,9.76,0.59,0.43,-0.23,0.0,-0.03,0.51,4584,2019-04-29 17:34:21:052
-0.26,0.34,9.76,0.59,0.43,-0.23,0.0,-0.03,0.51,4590,2019-04-29 17:34:21:058
-0.36,-0.62,10.4,0.45,-0.56,0.41,-0.03,-0.02,0.47,4594,2019-04-29 17:34:21:062
-0.36,-0.62,10.4,0.45,-0.56,0.41,-0.03,-0.02,0.47,4599,2019-04-29 17:34:21:067
-0.36,-0.62,10.4,0.45,-0.56,0.41,-0.01,-0.03,0.41,4604,2019-04-29 17:34:21:072
-0.36,-0.62,10.4,0.45,-0.56,0.41,-0.01,-0.03,0.41,4609,2019-04-29 17:34:21:077
-0.36,-0.62,10.4,0.45,-0.56,0.41,-0.01,-0.03,0.41,4615,2019-04-29 17:34:21:083
-0.36,-0.62,10.4,0.45,-0.56,0.41,-0.01,-0.03,0.41,4619,2019-04-29 17:34:21:087
-1.21,-1.14,9.96,-0.48,-1.0,-0.1,-0.01,-0.02,0.38,4624,2019-04-29 17:34:21:092
-1.21,-1.14,9.96,-0.48,-1.0,-0.1,-0.01,-0.02,0.38,4629,2019-04-29 17:34:21:097
-1.21,-1.14,9.96,-0.48,-1.0,-0.1,-0.01,-0.02,0.38,4635,2019-04-29 17:34:21:103
-1.21,-1.14,9.96,-0.48,-1.0,-0.1,-0.01,-0.02,0.38,4639,2019-04-29 17:34:21:107
-1.56,-0.79,10.41,-0.81,-0.63,0.31,0.0,-0.01,0.36,4644,2019-04-29 17:34:21:112
-1.56,-0.79,10.41,-0.81,-0.63,0.31,0.0,-0.01,0.36,4649,2019-04-29 17:34:21:117
-1.56,-0.79,10.41,-0.81,-0.63,0.31,0.0,-0.01,0.36,4655,2019-04-29 17:34:21:123
-1.56,-0.79,10.41,-0.81,-0.63,0.31,0.0,-0.01,0.36,4659,2019-04-29 17:34:21:127
-1.31,-0.9,9.64,-0.55,-0.69,-0.47,0.03,-0.02,0.36,4665,2019-04-29 17:34:21:133
-1.31,-0.9,9.64,-0.55,-0.69,-0.47,0.03,-0.02,0.36,4670,2019-04-29 17:34:21:138
-1.31,-0.9,9.64,-0.55,-0.69,-0.47,0.03,-0.02,0.36,4675,2019-04-29 17:34:21:143
-1.31,-0.9,9.64,-0.55,-0.69,-0.47,0.03,-0.02,0.36,4680,2019-04-29 17:34:21:148
-0.82,-0.6,9.93,-0.05,-0.36,-0.1,0.0,-0.03,0.36,4685,2019-04-29 17:34:21:153
-0.82,-0.6,9.93,-0.05,-0.36,-0.1,0.0,-0.03,0.36,4689,2019-04-29 17:34:21:157
-0.82,-0.6,9.93,-0.05,-0.36,-0.1,0.0,-0.03,0.36,4694,2019-04-29 17:34:21:162
-0.82,-0.6,9.93,-0.05,-0.36,-0.1,0.0,-0.03,0.36,4699,2019-04-29 17:34:21:167
-0.85,-0.44,9.66,-0.06,-0.13,-0.38,0.0,-0.02,0.34,4704,2019-04-29 17:34:21:172
-0.85,-0.44,9.66,-0.06,-0.13,-0.38,0.0,-0.02,0.34,4710,2019-04-29 17:34:21:178
-0.85,-0.44,9.66,-0.06,-0.13,-0.38,0.0,-0.02,0.34,4715,2019-04-29 17:34:21:183
-0.85,-0.44,9.66,-0.06,-0.13,-0.38,0.0,-0.02,0.34,4720,2019-04-29 17:34:21:188
-1.05,-0.77,10.01,-0.23,-0.36,0.01,0.0,-0.01,0.33,4725,2019-04-29 17:34:21:193
-1.05,-0.77,10.01,-0.23,-0.36,0.01,0.0,-0.01,0.33,4729,2019-04-29 17:34:21:197
-1.05,-0.77,10.01,-0.23,-0.36,0.01,0.0,-0.01,0.33,4734,2019-04-29 17:34:21:202
-1.05,-0.77,10.01,-0.23,-0.36,0.01,0.0,-0.01,0.33,4739,2019-04-29 17:34:21:207
-0.51,0.4,10.56,0.31,0.86,0.58,0.0,-0.03,0.33,4744,2019-04-29 17:34:21:212
-0.51,0.4,10.56,0.31,0.86,0.58,0.0,-0.03,0.33,4749,2019-04-29 17:34:21:217
-0.51,0.4,10.56,0.31,0.86,0.58,0.0,-0.03,0.33,4755,2019-04-29 17:34:21:223
-0.51,0.4,10.56,0.31,0.86,0.58,0.0,-0.03,0.33,4759,2019-04-29 17:34:21:227
-0.11,-0.18,9.56,0.74,0.29,-0.43,-0.02,-0.03,0.31,4764,2019-04-29 17:34:21:232
-0.11,-0.18,9.56,0.74,0.29,-0.43,-0.02,-0.03,0.31,4769,2019-04-29 17:34:21:237
-0.11,-0.18,9.56,0.74,0.29,-0.43,-0.02,-0.03,0.31,4775,2019-04-29 17:34:21:243
-0.11,-0.18,9.56,0.74,0.29,-0.43,-0.02,-0.03,0.31,4780,2019-04-29 17:34:21:248
-0.11,-0.18,9.56,0.74,0.29,-0.43,-0.02,-0.03,0.31,4784,2019-04-29 17:34:21:252
-0.11,-0.18,9.56,0.74,0.29,-0.43,-0.02,-0.03,0.31,4789,2019-04-29 17:34:21:257
-0.48,-0.33,9.82,0.42,0.21,-0.1,0.0,-0.01,0.29,4794,2019-04-29 17:34:21:262
-0.48,-0.33,9.82,0.42,0.21,-0.1,0.0,-0.01,0.29,4799,2019-04-29 17:34:21:267
-0.48,-0.33,9.82,0.42,0.21,-0.1,0.0,-0.01,0.29,4805,2019-04-29 17:34:21:273
-0.48,-0.33,9.82,0.42,0.21,-0.1,0.0,-0.01,0.29,4809,2019-04-29 17:34:21:277
-1.93,-0.84,9.93,-0.93,-0.3,0.0,0.0,0.0,0.29,4814,2019-04-29 17:34:21:282
-1.93,-0.84,9.93,-0.93,-0.3,0.0,0.0,0.0,0.29,4820,2019-04-29 17:34:21:288
-1.93,-0.84,9.93,-0.93,-0.3,0.0,0.0,0.0,0.29,4825,2019-04-29 17:34:21:293
-1.93,-0.84,9.93,1.23,-0.05,0.03,0.0,-0.06,0.35,4829,2019-04-29 17:34:21:297
-1.93,-0.84,9.93,1.23,-0.05,0.03,0.0,-0.06,0.35,4835,2019-04-29 17:34:21:303
-1.93,-0.84,9.93,1.23,-0.05,0.03,0.0,-0.06,0.35,4839,2019-04-29 17:34:21:307
-2.01,-0.58,10.0,-0.93,-0.11,0.06,0.03,-0.03,0.4,4845,2019-04-29 17:34:21:313
-2.01,-0.58,10.0,-0.93,-0.11,0.06,0.03,-0.03,0.4,4850,2019-04-29 17:34:21:318
-2.01,-0.58,10.0,-0.93,-0.11,0.06,0.03,-0.03,0.4,4855,2019-04-29 17:34:21:323
-2.01,-0.58,10.0,-0.93,-0.11,0.06,0.03,-0.03,0.4,4859,2019-04-29 17:34:21:327
-2.01,-0.58,10.0,-0.93,-0.11,0.06,0.03,-0.03,0.4,4865,2019-04-29 17:34:21:333
-2.01,-0.58,10.0,-0.93,-0.11,0.06,0.03,-0.03,0.4,4870,2019-04-29 17:34:21:338
-0.94,-0.93,10.12,-0.93,-0.11,0.06,-0.02,-0.06,0.4,4874,2019-04-29 17:34:21:342
-0.94,-0.93,10.12,0.09,-0.52,0.17,-0.02,-0.06,0.4,4879,2019-04-29 17:34:21:347
-0.94,-0.93,10.12,0.09,-0.52,0.17,-0.02,-0.04,0.39,4885,2019-04-29 17:34:21:353
-0.94,-0.93,10.12,0.09,-0.52,0.17,-0.02,-0.04,0.39,4890,2019-04-29 17:34:21:358
-0.94,-0.93,10.12,0.09,-0.52,0.17,-0.02,-0.04,0.39,4894,2019-04-29 17:34:21:362
-0.94,-0.93,10.12,0.09,-0.52,0.17,-0.02,-0.04,0.39,4899,2019-04-29 17:34:21:367
0.04,-0.34,8.95,0.92,0.06,-0.98,0.02,-0.04,0.36,4905,2019-04-29 17:34:21:373
0.04,-0.34,8.95,0.92,0.06,-0.98,0.02,-0.04,0.36,4910,2019-04-29 17:34:21:378
0.04,-0.34,8.95,0.92,0.06,-0.98,0.02,-0.04,0.36,4914,2019-04-29 17:34:21:382
0.04,-0.34,8.95,0.92,0.06,-0.98,0.02,-0.04,0.36,4919,2019-04-29 17:34:21:387
0.72,-0.14,10.64,1.54,0.23,0.66,-0.04,-0.03,0.32,4924,2019-04-29 17:34:21:392
0.72,-0.14,10.64,1.54,0.23,0.66,-0.04,-0.03,0.32,4929,2019-04-29 17:34:21:397
0.72,-0.14,10.64,1.54,0.23,0.66,-0.04,-0.03,0.32,4935,2019-04-29 17:34:21:403
0.94,-0.6,9.83,1.73,-0.11,-0.1,-0.01,-0.03,0.25,4945,2019-04-29 17:34:21:413
0.94,-0.6,9.83,1.73,-0.11,-0.1,-0.01,-0.03,0.25,4946,2019-04-29 17:34:21:414
0.94,-0.6,9.83,1.73,-0.11,-0.1,-0.01,-0.03,0.25,4949,2019-04-29 17:34:21:417
0.94,-0.6,9.83,1.73,-0.11,-0.1,-0.01,-0.03,0.25,4955,2019-04-29 17:34:21:423
0.94,-0.6,9.83,1.73,-0.11,-0.1,-0.01,-0.03,0.25,4959,2019-04-29 17:34:21:427
0.94,-0.6,9.83,1.73,-0.11,-0.1,-0.01,-0.03,0.25,4964,2019-04-29 17:34:21:432
0.94,-0.6,9.83,1.73,-0.11,-0.1,-0.01,-0.03,0.25,4970,2019-04-29 17:34:21:438
0.38,-0.56,9.62,1.19,0.04,-0.27,0.02,0.0,0.18,4975,2019-04-29 17:34:21:443
0.38,-0.56,9.62,1.19,0.04,-0.27,0.02,0.0,0.18,4980,2019-04-29 17:34:21:448
0.38,-0.56,9.62,1.19,0.04,-0.27,0.02,0.0,0.18,4985,2019-04-29 17:34:21:453
0.38,-0.56,9.62,1.19,0.04,-0.27,0.02,0.0,0.18,4990,2019-04-29 17:34:21:458
0.38,-0.56,9.62,1.19,0.04,-0.27,0.02,0.0,0.18,4994,2019-04-29 17:34:21:462
-0.32,-1.25,10.54,0.47,-0.62,0.58,-0.02,0.01,0.1,5000,2019-04-29 17:34:21:468
-0.32,-1.25,10.54,0.47,-0.62,0.58,-0.02,0.01,0.1,5007,2019-04-29 17:34:21:475
-0.32,-1.25,10.54,0.47,-0.62,0.58,-0.02,0.01,0.1,5009,2019-04-29 17:34:21:477
-0.32,-1.25,10.54,0.47,-0.62,0.58,-0.02,0.01,0.1,5015,2019-04-29 17:34:21:483
-0.32,-1.25,10.54,0.47,-0.62,0.58,-0.02,0.01,0.1,5019,2019-04-29 17:34:21:487
-1.12,-0.73,9.59,-0.42,-0.03,-0.31,0.01,0.01,0.05,5024,2019-04-29 17:34:21:492
-1.12,-0.73,9.59,-0.42,-0.03,-0.31,0.01,0.01,0.05,5029,2019-04-29 17:34:21:497
-1.12,-0.73,9.59,-0.42,-0.03,-0.31,0.01,0.01,0.05,5035,2019-04-29 17:34:21:503
-1.12,-0.73,9.59,-0.42,-0.03,-0.31,0.01,0.01,0.05,5039,2019-04-29 17:34:21:507
-1.12,-0.73,9.59,-0.42,-0.03,-0.31,0.01,0.01,0.05,5045,2019-04-29 17:34:21:513
-1.12,-1.06,9.9,-0.44,-0.34,0.0,-0.02,0.0,0.03,5050,2019-04-29 17:34:21:518
-1.12,-1.06,9.9,-0.44,-0.34,0.0,-0.02,0.0,0.03,5055,2019-04-29 17:34:21:523
-1.12,-1.06,9.9,-0.44,-0.34,0.0,-0.02,0.0,0.03,5059,2019-04-29 17:34:21:527
-1.27,-0.75,9.79,-0.59,0.0,-0.09,0.0,0.0,-0.01,5065,2019-04-29 17:34:21:533
-1.27,-0.75,9.79,-0.59,0.0,-0.09,0.0,0.0,-0.01,5069,2019-04-29 17:34:21:537
-1.27,-0.75,9.79,-0.59,0.0,-0.09,0.0,0.0,-0.05,5075,2019-04-29 17:34:21:543
-1.27,-0.75,9.79,-0.59,0.0,-0.09,0.0,0.0,-0.05,5080,2019-04-29 17:34:21:548
-1.27,-0.75,9.79,-0.59,0.0,-0.09,0.0,0.0,-0.05,5085,2019-04-29 17:34:21:553
-1.27,-0.75,9.79,-0.59,0.0,-0.09,0.0,0.0,-0.05,5090,2019-04-29 17:34:21:558
-0.48,-0.81,10.13,0.25,-0.02,0.25,-0.02,0.01,-0.08,5094,2019-04-29 17:34:21:562
-0.48,-0.81,10.13,0.25,-0.02,0.25,-0.02,0.01,-0.08,5100,2019-04-29 17:34:21:568
-0.48,-0.81,10.13,0.25,-0.02,0.25,0.0,0.02,-0.12,5104,2019-04-29 17:34:21:572
-0.48,-0.81,10.13,0.25,-0.02,0.25,0.0,0.02,-0.12,5110,2019-04-29 17:34:21:578
-0.48,-0.81,10.13,0.25,-0.02,0.25,0.0,0.02,-0.12,5115,2019-04-29 17:34:21:583
-0.48,-0.81,10.13,0.25,-0.02,0.25,0.0,0.02,-0.12,5119,2019-04-29 17:34:21:587
-0.88,-0.86,9.81,-0.03,0.02,-0.05,-0.01,0.0,-0.12,5124,2019-04-29 17:34:21:592
-0.88,-0.86,9.81,-0.03,0.02,-0.05,-0.01,0.0,-0.12,5130,2019-04-29 17:34:21:598
-1.23,-0.84,9.96,-0.39,-0.02,0.07,0.01,0.0,-0.16,5134,2019-04-29 17:34:21:602
-1.23,-0.84,9.96,-0.39,-0.02,0.07,0.01,0.0,-0.16,5141,2019-04-29 17:34:21:609
-1.23,-0.84,9.96,-0.39,-0.02,0.07,0.01,0.0,-0.16,5145,2019-04-29 17:34:21:613
-1.23,-0.84,9.96,-0.39,-0.02,0.07,0.01,0.0,-0.16,5149,2019-04-29 17:34:21:617
-1.23,-0.84,9.96,-0.39,-0.02,0.07,0.01,0.0,-0.16,5155,2019-04-29 17:34:21:623
-1.23,-0.84,9.96,-0.39,-0.02,0.07,0.01,0.0,-0.16,5160,2019-04-29 17:34:21:628
-0.43,-0.86,10.36,0.43,-0.02,0.43,-0.03,0.01,-0.18,5165,2019-04-29 17:34:21:633
-0.43,-0.86,10.36,0.43,-0.02,0.43,-0.03,0.01,-0.18,5169,2019-04-29 17:34:21:637
-0.43,-0.86,10.36,0.43,-0.02,0.43,-0.03,0.01,-0.18,5174,2019-04-29 17:34:21:642
-0.43,-0.86,10.36,0.43,-0.02,0.43,-0.03,0.01,-0.18,5180,2019-04-29 17:34:21:648
-0.52,-0.73,10.14,0.34,0.06,0.24,-0.01,0.01,-0.2,5184,2019-04-29 17:34:21:652
-0.52,-0.73,10.14,0.34,0.06,0.24,-0.01,0.01,-0.2,5189,2019-04-29 17:34:21:657
-0.52,-0.73,10.14,0.34,0.06,0.24,0.01,0.01,-0.21,5194,2019-04-29 17:34:21:662
-0.52,-0.73,10.14,0.34,0.06,0.24,0.01,0.01,-0.21,5199,2019-04-29 17:34:21:667
-0.52,-0.73,10.14,0.34,0.06,0.24,0.01,0.01,-0.21,5205,2019-04-29 17:34:21:673
-0.52,-0.73,10.14,0.34,0.06,0.24,0.01,0.01,-0.21,5209,2019-04-29 17:34:21:677
-0.52,-0.73,10.14,0.34,0.06,0.24,0.01,0.01,-0.21,5215,2019-04-29 17:34:21:683
-0.52,-0.73,10.14,0.34,0.06,0.24,0.01,0.01,-0.21,5219,2019-04-29 17:34:21:687
-0.72,-0.61,10.09,0.13,0.14,0.15,-0.02,0.02,-0.2,5225,2019-04-29 17:34:21:693
-0.72,-0.61,10.09,0.13,0.14,0.15,-0.02,0.02,-0.2,5230,2019-04-29 17:34:21:698
-0.72,-0.61,10.09,0.13,0.14,0.15,-0.02,0.02,-0.2,5234,2019-04-29 17:34:21:702
-0.99,-0.71,10.19,-0.09,0.02,0.26,-0.01,0.01,-0.2,5242,2019-04-29 17:34:21:710
-0.99,-0.71,10.19,-0.09,0.02,0.26,-0.01,0.01,-0.2,5247,2019-04-29 17:34:21:715
-0.99,-0.71,10.19,-0.09,0.02,0.26,-0.01,0.01,-0.2,5250,2019-04-29 17:34:21:718
-0.99,-0.71,10.19,-0.09,0.02,0.26,-0.01,0.01,-0.2,5254,2019-04-29 17:34:21:722
-0.99,-0.71,10.19,-0.09,0.02,0.26,-0.01,0.01,-0.2,5259,2019-04-29 17:34:21:727
-1.29,-0.56,9.68,-0.34,0.17,-0.25,0.0,0.01,-0.19,5265,2019-04-29 17:34:21:733
-1.29,-0.56,9.68,-0.34,0.17,-0.25,0.0,0.01,-0.19,5269,2019-04-29 17:34:21:737
-1.29,-0.56,9.68,-0.34,0.17,-0.25,0.0,0.01,-0.19,5275,2019-04-29 17:34:21:743
-1.29,-0.56,9.68,-0.34,0.17,-0.25,0.0,0.01,-0.19,5279,2019-04-29 17:34:21:747
-1.29,-0.56,9.68,-0.34,0.17,-0.25,0.0,0.01,-0.19,5285,2019-04-29 17:34:21:753
-1.29,-0.56,9.68,-0.34,0.17,-0.25,0.0,0.01,-0.19,5290,2019-04-29 17:34:21:758
-1.02,-1.21,10.09,-0.05,-0.45,0.13,0.0,0.01,-0.18,5294,2019-04-29 17:34:21:762
-1.02,-1.21,10.09,-0.05,-0.45,0.13,0.0,0.01,-0.18,5300,2019-04-29 17:34:21:768
-1.02,-1.21,10.09,-0.05,-0.45,0.13,-0.02,0.01,-0.17,5305,2019-04-29 17:34:21:773
-1.02,-1.21,10.09,-0.05,-0.45,0.13,-0.02,0.01,-0.17,5309,2019-04-29 17:34:21:777
-1.02,-1.21,10.09,-0.05,-0.45,0.13,-0.02,0.01,-0.17,5315,2019-04-29 17:34:21:783
-1.02,-1.21,10.09,-0.05,-0.45,0.13,-0.02,0.01,-0.17,5320,2019-04-29 17:34:21:788
-1.04,-0.35,9.82,-0.07,0.37,-0.11,0.0,0.0,-0.17,5325,2019-04-29 17:34:21:793
-1.04,-0.35,9.82,-0.07,0.37,-0.11,0.0,0.0,-0.17,5329,2019-04-29 17:34:21:797
-1.04,-0.35,9.82,-0.07,0.37,-0.11,0.0,0.0,-0.17,5334,2019-04-29 17:34:21:802
-1.04,-0.35,9.82,-0.07,0.37,-0.11,0.0,0.0,-0.17,5340,2019-04-29 17:34:21:808
-1.04,-0.35,9.82,-0.07,0.37,-0.11,0.0,0.0,-0.17,5345,2019-04-29 17:34:21:813
-1.09,-1.24,10.07,-0.14,-0.48,0.12,-0.03,0.0,-0.15,5349,2019-04-29 17:34:21:817
-1.09,-1.24,10.07,-0.14,-0.48,0.12,-0.03,0.0,-0.15,5354,2019-04-29 17:34:21:822
-1.09,-1.24,10.07,-0.14,-0.48,0.12,-0.03,0.0,-0.15,5360,2019-04-29 17:34:21:828
-1.07,-0.78,9.83,-0.11,-0.02,-0.07,0.0,0.0,-0.13,5364,2019-04-29 17:34:21:832
-1.07,-0.78,9.83,-0.11,-0.02,-0.07,0.0,0.0,-0.13,5370,2019-04-29 17:34:21:838
-1.07,-0.78,9.83,-0.11,-0.02,-0.07,0.0,0.0,-0.13,5375,2019-04-29 17:34:21:843
-1.07,-0.78,9.83,-0.11,-0.02,-0.07,0.0,0.0,-0.13,5379,2019-04-29 17:34:21:847
-0.78,-0.9,9.88,0.16,-0.12,-0.05,-0.01,0.0,-0.11,5384,2019-04-29 17:34:21:852
-0.78,-0.9,9.88,0.16,-0.12,-0.05,-0.01,0.0,-0.11,5389,2019-04-29 17:34:21:857
-0.78,-0.9,9.88,0.09,-0.07,-0.18,-0.01,0.0,-0.1,5395,2019-04-29 17:34:21:863
-0.78,-0.9,9.88,0.09,-0.07,-0.18,-0.01,0.0,-0.1,5400,2019-04-29 17:34:21:868
-0.78,-0.9,9.88,0.09,-0.07,-0.18,-0.01,0.0,-0.1,5405,2019-04-29 17:34:21:873
-0.78,-0.9,9.88,0.09,-0.07,-0.18,-0.01,0.0,-0.1,5409,2019-04-29 17:34:21:877
-0.78,-0.9,9.88,0.09,-0.07,-0.18,-0.01,0.0,-0.1,5415,2019-04-29 17:34:21:883
-0.78,-0.9,9.88,0.09,-0.07,-0.18,-0.01,0.0,-0.1,5420,2019-04-29 17:34:21:888
-0.59,-0.96,9.9,0.28,-0.13,0.0,0.0,0.0,-0.1,5424,2019-04-29 17:34:21:892
-0.59,-0.96,9.9,0.28,-0.13,0.0,0.0,0.0,-0.1,5429,2019-04-29 17:34:21:897
-0.59,-0.96,9.9,0.28,-0.13,0.0,0.0,0.0,-0.1,5435,2019-04-29 17:34:21:903
-0.59,-0.96,9.9,0.28,-0.13,0.0,0.0,0.0,-0.1,5439,2019-04-29 17:34:21:907
-0.59,-0.79,9.96,0.25,0.08,0.04,-0.01,0.0,-0.11,5444,2019-04-29 17:34:21:912
-0.59,-0.79,9.96,0.25,0.08,0.04,-0.01,0.0,-0.11,5449,2019-04-29 17:34:21:917
-0.59,-0.79,9.96,0.25,0.08,0.04,-0.02,0.0,-0.11,5455,2019-04-29 17:34:21:923
-0.59,-0.79,9.96,0.25,0.08,0.04,-0.02,0.0,-0.11,5460,2019-04-29 17:34:21:928
-0.59,-0.79,9.96,0.25,0.08,0.04,-0.02,0.0,-0.11,5464,2019-04-29 17:34:21:932
-0.59,-0.79,9.96,0.25,0.08,0.04,-0.02,0.0,-0.11,5469,2019-04-29 17:34:21:937
-0.59,-0.79,9.96,0.25,0.08,0.04,-0.02,0.0,-0.11,5474,2019-04-29 17:34:21:942
-0.59,-0.79,9.96,0.25,0.08,0.04,-0.02,0.0,-0.11,5480,2019-04-29 17:34:21:948
-0.59,-0.79,9.96,0.25,0.08,0.04,-0.02,0.0,-0.11,5485,2019-04-29 17:34:21:953
-0.59,-0.79,9.96,0.25,0.08,0.04,-0.02,0.0,-0.11,5489,2019-04-29 17:34:21:957
-1.0,-0.8,9.89,-0.15,0.08,0.0,0.0,0.0,-0.11,5495,2019-04-29 17:34:21:963
-1.0,-0.8,9.89,-0.15,0.08,0.0,0.0,0.0,-0.11,5499,2019-04-29 17:34:21:967
-1.0,-0.8,9.89,-0.15,0.08,0.0,0.0,0.0,-0.11,5504,2019-04-29 17:34:21:972
-1.0,-0.8,9.89,-0.15,0.08,0.0,0.0,0.0,-0.11,5509,2019-04-29 17:34:21:977
-1.0,-0.8,9.89,-0.15,0.08,0.0,0.0,0.0,-0.11,5514,2019-04-29 17:34:21:982
-1.0,-0.8,9.89,-0.15,0.08,0.0,0.0,0.0,-0.11,5519,2019-04-29 17:34:21:987
-0.98,-1.1,9.95,-0.07,-0.14,0.03,0.0,0.0,-0.05,5524,2019-04-29 17:34:21:992
-0.98,-1.1,9.95,-0.07,-0.14,0.03,0.0,0.0,-0.05,5530,2019-04-29 17:34:21:998
-0.98,-1.1,9.95,-0.07,-0.14,0.03,0.0,0.0,-0.05,5535,2019-04-29 17:34:22:003
-0.98,-1.1,9.95,-0.07,-0.14,0.03,0.0,0.0,-0.05,5540,2019-04-29 17:34:22:008
-0.96,-1.09,9.76,-0.02,-0.12,-0.13,0.0,0.0,-0.02,5545,2019-04-29 17:34:22:013
-0.96,-1.09,9.76,-0.02,-0.12,-0.13,0.0,0.0,-0.02,5549,2019-04-29 17:34:22:017
-1.02,-1.64,9.84,-0.02,-0.12,-0.13,0.0,-0.02,0.03,5554,2019-04-29 17:34:22:022
-1.02,-1.64,9.84,-0.02,-0.12,-0.13,0.0,-0.02,0.03,5559,2019-04-29 17:34:22:027
-1.02,-1.64,9.84,-0.02,-0.12,-0.13,0.0,-0.02,0.03,5565,2019-04-29 17:34:22:033
-1.02,-1.64,9.84,-0.02,-0.12,-0.13,0.0,-0.02,0.03,5570,2019-04-29 17:34:22:038
-0.9,-1.64,9.97,0.06,-0.55,0.07,0.0,-0.02,0.04,5574,2019-04-29 17:34:22:042
-0.9,-1.64,9.97,0.06,-0.55,0.07,0.0,-0.02,0.04,5579,2019-04-29 17:34:22:047
-0.9,-1.64,9.97,0.06,-0.55,0.07,0.0,-0.02,0.04,5585,2019-04-29 17:34:22:053
-0.9,-1.64,9.97,0.06,-0.55,0.07,0.0,-0.02,0.04,5589,2019-04-29 17:34:22:057
-0.58,-1.31,9.76,0.37,-0.17,-0.12,0.0,-0.02,0.06,5594,2019-04-29 17:34:22:062
-0.58,-1.31,9.76,0.37,-0.17,-0.12,0.0,-0.02,0.06,5600,2019-04-29 17:34:22:068
-0.58,-1.31,9.76,0.37,-0.17,-0.12,0.0,-0.02,0.06,5604,2019-04-29 17:34:22:072
-0.58,-1.31,9.76,0.37,-0.17,-0.12,0.0,-0.02,0.06,5609,2019-04-29 17:34:22:077
-0.58,-1.31,9.76,0.37,-0.17,-0.12,0.0,-0.02,0.06,5614,2019-04-29 17:34:22:082
-0.58,-1.31,9.76,0.37,-0.17,-0.12,0.0,-0.02,0.06,5619,2019-04-29 17:34:22:087
-0.65,-1.25,9.97,0.3,-0.07,0.05,0.0,-0.01,0.04,5624,2019-04-29 17:34:22:092
-0.65,-1.25,9.97,0.3,-0.07,0.05,0.0,-0.01,0.04,5630,2019-04-29 17:34:22:098
-0.62,-1.21,9.98,0.32,-0.09,0.04,0.01,0.0,0.02,5634,2019-04-29 17:34:22:102
-0.62,-1.21,9.98,0.32,-0.09,0.04,0.01,0.0,0.02,5639,2019-04-29 17:34:22:107
-0.62,-1.21,9.98,0.32,-0.09,0.04,0.01,0.0,0.02,5644,2019-04-29 17:34:22:112
-0.62,-1.21,9.98,0.32,-0.09,0.04,0.01,0.0,0.02,5649,2019-04-29 17:34:22:117
-0.73,-1.17,9.6,0.17,0.06,-0.27,0.02,0.0,-0.01,5655,2019-04-29 17:34:22:123
-0.73,-1.17,9.6,0.17,0.06,-0.27,0.02,0.0,-0.01,5660,2019-04-29 17:34:22:128
-0.73,-1.17,9.6,0.17,0.06,-0.27,0.02,0.0,-0.01,5664,2019-04-29 17:34:22:132
-0.73,-1.17,9.6,0.17,0.06,-0.27,0.02,0.0,-0.01,5669,2019-04-29 17:34:22:137
-0.82,-1.0,9.88,0.04,0.24,0.0,0.0,0.0,-0.06,5675,2019-04-29 17:34:22:143
-0.82,-1.0,9.88,0.04,0.24,0.0,0.0,0.0,-0.06,5680,2019-04-29 17:34:22:148
-0.82,-1.0,9.88,0.04,0.24,0.0,0.0,0.0,-0.06,5685,2019-04-29 17:34:22:153
-0.82,-1.0,9.88,0.04,0.24,0.0,0.0,0.0,-0.06,5690,2019-04-29 17:34:22:158
-1.0,-1.21,10.22,-0.16,0.03,0.33,0.01,0.0,-0.09,5695,2019-04-29 17:34:22:163
-1.0,-1.21,10.22,-0.16,0.03,0.33,0.01,0.0,-0.09,5699,2019-04-29 17:34:22:167
-1.0,-1.21,10.22,-0.16,0.03,0.33,0.01,0.0,-0.09,5704,2019-04-29 17:34:22:172
-1.0,-1.21,10.22,-0.16,0.03,0.33,0.01,0.0,-0.09,5709,2019-04-29 17:34:22:177
-1.0,-1.21,10.22,-0.16,0.03,0.33,0.01,0.0,-0.09,5715,2019-04-29 17:34:22:183
-1.0,-1.21,10.22,-0.16,0.03,0.33,0.01,0.0,-0.09,5719,2019-04-29 17:34:22:187
-1.02,-1.3,9.61,-0.18,-0.02,-0.27,0.03,0.01,-0.1,5725,2019-04-29 17:34:22:193
-1.02,-1.3,9.61,-0.18,-0.02,-0.27,0.03,0.01,-0.1,5730,2019-04-29 17:34:22:198
-1.02,-1.3,9.61,-0.18,-0.02,-0.27,0.03,0.01,-0.1,5735,2019-04-29 17:34:22:203
-1.02,-1.3,9.61,-0.18,-0.02,-0.27,0.03,0.01,-0.1,5740,2019-04-29 17:34:22:208
-1.18,-1.75,10.0,-0.33,-0.42,0.1,0.0,0.0,-0.1,5745,2019-04-29 17:34:22:213
-1.18,-1.75,10.0,-0.33,-0.42,0.1,0.0,0.0,-0.1,5749,2019-04-29 17:34:22:217
-1.18,-1.75,10.0,-0.33,-0.42,0.1,0.0,0.0,-0.1,5755,2019-04-29 17:34:22:223
-1.18,-1.75,10.0,-0.33,-0.42,0.1,0.0,0.0,-0.1,5760,2019-04-29 17:34:22:228
-0.63,-1.28,10.07,0.23,0.17,0.22,0.03,0.0,-0.09,5825,2019-04-29 17:34:22:293
-0.63,-1.28,10.07,0.23,0.17,0.22,0.03,0.0,-0.09,5827,2019-04-29 17:34:22:295
-0.63,-1.28,10.07,0.23,0.17,0.22,0.03,0.0,-0.09,5831,2019-04-29 17:34:22:299
-0.63,-1.28,10.07,0.23,0.17,0.22,0.03,0.0,-0.09,5832,2019-04-29 17:34:22:300
-0.63,-1.28,10.07,0.23,0.17,0.22,0.03,0.0,-0.09,5832,2019-04-29 17:34:22:300
-0.63,-1.28,10.07,0.23,0.17,0.22,0.03,0.0,-0.09,5832,2019-04-29 17:34:22:300
-0.63,-1.28,10.07,0.23,0.17,0.22,0.03,0.0,-0.09,5833,2019-04-29 17:34:22:301
-0.63,-1.28,10.07,0.23,0.17,0.22,0.03,0.0,-0.09,5833,2019-04-29 17:34:22:301
-0.63,-1.28,10.07,0.23,0.17,0.22,0.03,0.0,-0.09,5833,2019-04-29 17:34:22:301
-0.63,-1.28,10.07,0.23,0.17,0.22,0.03,0.0,-0.09,5834,2019-04-29 17:34:22:302
-0.63,-1.28,10.07,0.23,0.17,0.22,0.03,0.0,-0.09,5837,2019-04-29 17:34:22:305
-0.63,-1.28,10.07,0.23,0.17,0.22,0.03,0.0,-0.09,5838,2019-04-29 17:34:22:306
-0.63,-1.28,10.07,0.23,0.17,0.22,0.03,0.0,-0.09,5838,2019-04-29 17:34:22:306
-0.63,-1.28,10.07,0.23,0.17,0.22,0.03,0.0,-0.09,5838,2019-04-29 17:34:22:306
-0.63,-1.28,10.07,0.23,0.17,0.22,0.03,0.0,-0.09,5839,2019-04-29 17:34:22:307
-0.63,-1.28,10.07,0.23,0.17,0.22,0.03,0.0,-0.09,5839,2019-04-29 17:34:22:307
-0.7,-1.17,10.16,0.15,0.29,0.28,0.0,0.01,-0.12,5844,2019-04-29 17:34:22:312
-0.7,-1.17,10.16,0.15,0.29,0.28,0.0,0.01,-0.12,5850,2019-04-29 17:34:22:318
-0.7,-1.17,10.16,0.15,0.29,0.28,0.0,0.01,-0.12,5857,2019-04-29 17:34:22:325
-0.7,-1.17,10.16,0.15,0.29,0.28,0.0,0.01,-0.12,5860,2019-04-29 17:34:22:328
-0.48,-1.62,9.4,0.34,-0.12,-0.44,0.06,0.0,-0.14,5864,2019-04-29 17:34:22:332
-0.48,-1.62,9.4,0.34,-0.12,-0.44,0.06,0.0,-0.14,5869,2019-04-29 17:34:22:337
-0.48,-1.62,9.4,0.34,-0.12,-0.44,0.06,0.0,-0.14,5874,2019-04-29 17:34:22:342
-0.48,-1.62,9.4,0.34,-0.12,-0.44,0.06,0.0,-0.14,5880,2019-04-29 17:34:22:348
-0.51,-1.0,9.49,0.31,0.53,-0.32,0.04,0.03,-0.17,5884,2019-04-29 17:34:22:352
-0.51,-1.0,9.49,0.31,0.53,-0.32,0.04,0.03,-0.17,5890,2019-04-29 17:34:22:358
-0.51,-1.0,9.49,0.31,0.53,-0.32,0.04,0.03,-0.17,5895,2019-04-29 17:34:22:363
-0.51,-1.0,9.49,0.31,0.53,-0.32,0.04,0.03,-0.17,5900,2019-04-29 17:34:22:368
-0.89,-1.8,10.23,-0.07,-0.23,0.38,-0.02,0.04,-0.23,5905,2019-04-29 17:34:22:373
-0.89,-1.8,10.23,-0.07,-0.23,0.38,-0.02,0.04,-0.23,5910,2019-04-29 17:34:22:378
-0.89,-1.8,10.23,-0.07,-0.23,0.38,-0.02,0.04,-0.23,5914,2019-04-29 17:34:22:382
-0.89,-1.8,10.23,-0.07,-0.23,0.38,-0.02,0.04,-0.23,5919,2019-04-29 17:34:22:387
-1.0,-1.36,9.88,-0.18,0.18,0.06,0.04,0.03,-0.27,5924,2019-04-29 17:34:22:392
-1.0,-1.36,9.88,-0.18,0.18,0.06,0.04,0.03,-0.27,5930,2019-04-29 17:34:22:398
-1.0,-1.36,9.88,-0.18,0.18,0.06,0.04,0.03,-0.27,5935,2019-04-29 17:34:22:403
-1.0,-1.36,9.88,-0.18,0.18,0.06,0.04,0.03,-0.27,5939,2019-04-29 17:34:22:407
-1.33,-1.37,8.73,-0.5,0.18,-1.03,0.02,0.03,-0.29,5944,2019-04-29 17:34:22:412
-1.33,-1.37,8.73,-0.5,0.18,-1.03,0.02,0.03,-0.29,5949,2019-04-29 17:34:22:417
-1.33,-1.37,8.73,-0.5,0.18,-1.03,0.0,0.04,-0.29,5954,2019-04-29 17:34:22:422
-1.33,-1.37,8.73,-0.19,0.73,0.13,0.0,0.04,-0.29,5962,2019-04-29 17:34:22:430
-1.33,-1.37,8.73,-0.19,0.73,0.13,0.0,0.04,-0.29,5964,2019-04-29 17:34:22:432
-1.33,-1.37,8.73,-0.19,0.73,0.13,0.0,0.04,-0.29,5969,2019-04-29 17:34:22:437
-1.33,-1.37,8.73,-0.19,0.73,0.13,0.0,0.04,-0.29,5974,2019-04-29 17:34:22:442
-1.33,-1.37,8.73,-0.19,0.73,0.13,0.0,0.04,-0.29,5979,2019-04-29 17:34:22:447
-0.71,-1.53,10.03,0.09,-0.05,0.21,0.02,0.04,-0.3,5985,2019-04-29 17:34:22:453
-0.71,-1.53,10.03,0.09,-0.05,0.21,0.02,0.04,-0.3,5990,2019-04-29 17:34:22:458
-1.7,-1.04,10.73,-0.79,0.33,0.91,0.03,0.03,-0.32,5996,2019-04-29 17:34:22:464
-1.7,-1.04,10.73,-0.79,0.33,0.91,0.03,0.03,-0.32,5999,2019-04-29 17:34:22:467
-1.7,-1.04,10.73,-0.79,0.33,0.91,0.03,0.03,-0.32,6004,2019-04-29 17:34:22:472
-1.7,-1.04,10.73,-0.79,0.33,0.91,0.03,0.03,-0.32,6009,2019-04-29 17:34:22:477
-1.26,-0.29,9.04,-0.26,1.0,-0.81,0.04,0.03,-0.29,6015,2019-04-29 17:34:22:483
-1.26,-0.29,9.04,-0.26,1.0,-0.81,0.04,0.03,-0.29,6021,2019-04-29 17:34:22:489
-1.26,-0.29,9.04,-0.26,1.0,-0.81,0.04,0.03,-0.29,6025,2019-04-29 17:34:22:493
-1.26,-0.29,9.04,-0.26,1.0,-0.81,0.04,0.03,-0.29,6029,2019-04-29 17:34:22:497
-0.59,-0.51,10.3,0.45,0.69,0.44,0.04,0.03,-0.23,6036,2019-04-29 17:34:22:504
-0.59,-0.51,10.3,0.45,0.69,0.44,0.04,0.03,-0.23,6040,2019-04-29 17:34:22:508
-0.59,-0.51,10.3,0.45,0.69,0.44,0.04,0.03,-0.23,6046,2019-04-29 17:34:22:514
-0.59,-0.51,10.3,0.45,0.69,0.44,0.04,0.03,-0.23,6049,2019-04-29 17:34:22:517
-0.59,-0.51,10.3,0.45,0.69,0.44,0.04,0.03,-0.23,6058,2019-04-29 17:34:22:526
-0.77,-0.9,9.56,0.45,0.69,0.44,0.0,0.01,-0.19,6061,2019-04-29 17:34:22:529
-0.77,-0.9,9.56,0.38,0.19,-0.26,0.0,0.01,-0.19,6065,2019-04-29 17:34:22:533
-0.77,-0.9,9.56,0.38,0.19,-0.26,0.0,0.01,-0.19,6070,2019-04-29 17:34:22:538
-1.12,-0.51,9.88,0.38,0.19,-0.26,-0.02,0.01,-0.13,6077,2019-04-29 17:34:22:545
-1.12,-0.51,9.88,0.38,0.19,-0.26,-0.02,0.01,-0.13,6080,2019-04-29 17:34:22:548
-1.12,-0.51,9.88,0.38,0.19,-0.26,-0.02,0.01,-0.13,6084,2019-04-29 17:34:22:552
-1.12,-0.51,9.88,0.38,0.19,-0.26,-0.02,0.01,-0.13,6090,2019-04-29 17:34:22:558
-1.12,-0.51,9.88,0.38,0.19,-0.26,-0.02,0.01,-0.13,6094,2019-04-29 17:34:22:562
-1.12,-0.51,9.88,0.38,0.19,-0.26,-0.02,0.01,-0.13,6100,2019-04-29 17:34:22:568
-0.33,-1.05,10.75,0.9,-0.01,0.91,0.05,0.0,-0.02,6105,2019-04-29 17:34:22:573
-0.33,-1.05,10.75,0.9,-0.01,0.91,0.05,0.0,-0.02,6109,2019-04-29 17:34:22:577
-0.33,-1.05,10.75,0.9,-0.01,0.91,-0.03,0.02,-0.02,6114,2019-04-29 17:34:22:582
-0.33,-1.05,10.75,0.9,-0.01,0.91,-0.03,0.02,-0.02,6121,2019-04-29 17:34:22:589
-0.33,-1.05,10.75,0.9,-0.01,0.91,-0.03,0.02,-0.02,6124,2019-04-29 17:34:22:592
-0.33,-1.05,10.75,0.9,-0.01,0.91,-0.03,0.02,-0.02,6130,2019-04-29 17:34:22:598
-0.48,-1.09,9.24,0.62,-0.14,-0.68,-0.02,0.0,-0.07,6135,2019-04-29 17:34:22:603
-0.48,-1.09,9.24,0.62,-0.14,-0.68,-0.02,0.0,-0.07,6140,2019-04-29 17:34:22:608
-0.48,-1.09,9.24,0.62,-0.14,-0.68,-0.02,0.0,-0.07,6146,2019-04-29 17:34:22:614
-0.48,-1.09,9.24,0.62,-0.14,-0.68,-0.02,0.0,-0.07,6150,2019-04-29 17:34:22:618
-0.7,-1.01,9.69,0.35,-0.11,-0.17,0.05,0.0,-0.09,6154,2019-04-29 17:34:22:622
-0.7,-1.01,9.69,0.35,-0.11,-0.17,0.05,0.0,-0.09,6159,2019-04-29 17:34:22:627
-0.7,-1.01,9.69,0.35,-0.11,-0.17,0.05,0.0,-0.09,6165,2019-04-29 17:34:22:633
-0.7,-1.01,9.69,0.35,-0.11,-0.17,0.05,0.0,-0.09,6170,2019-04-29 17:34:22:638
-1.38,-0.43,9.6,-0.31,0.41,-0.26,-0.03,0.03,-0.13,6174,2019-04-29 17:34:22:642
-1.38,-0.43,9.6,-0.31,0.41,-0.26,-0.03,0.03,-0.13,6180,2019-04-29 17:34:22:648
-1.38,-0.43,9.6,-0.31,0.41,-0.26,-0.03,0.03,-0.13,6185,2019-04-29 17:34:22:653
-1.08,-1.03,10.27,-0.12,-0.15,0.4,-0.02,0.0,-0.13,6192,2019-04-29 17:34:22:660
-1.08,-1.03,10.27,-0.12,-0.15,0.4,-0.02,0.0,-0.13,6194,2019-04-29 17:34:22:662
-1.08,-1.03,10.27,-0.12,-0.15,0.4,-0.02,0.0,-0.13,6199,2019-04-29 17:34:22:667
-1.08,-1.03,10.27,-0.12,-0.15,0.4,-0.02,0.0,-0.13,6204,2019-04-29 17:34:22:672
-1.08,-1.03,10.27,-0.12,-0.15,0.4,-0.02,0.0,-0.13,6209,2019-04-29 17:34:22:677
-1.08,-1.03,10.27,-0.12,-0.15,0.4,-0.02,0.0,-0.13,6215,2019-04-29 17:34:22:683
-1.08,-1.03,10.27,-0.12,-0.15,0.4,-0.02,0.0,-0.13,6220,2019-04-29 17:34:22:688
-0.32,-1.17,9.51,0.61,-0.25,-0.28,0.07,0.03,-0.14,6225,2019-04-29 17:34:22:693
-0.32,-1.17,9.51,0.61,-0.25,-0.28,0.07,0.03,-0.14,6234,2019-04-29 17:34:22:702
-0.32,-1.17,9.51,0.61,-0.25,-0.28,0.07,0.03,-0.14,6235,2019-04-29 17:34:22:703
-0.32,-1.17,9.51,0.61,-0.25,-0.28,0.07,0.03,-0.14,6239,2019-04-29 17:34:22:707
-0.32,-1.17,9.51,0.61,-0.25,-0.28,0.07,0.03,-0.14,6245,2019-04-29 17:34:22:713
-0.32,-1.17,9.51,0.61,-0.25,-0.28,0.07,0.03,-0.14,6249,2019-04-29 17:34:22:717
-1.76,-1.74,8.99,-0.83,-0.7,-0.76,-0.02,0.01,-0.15,6254,2019-04-29 17:34:22:722
-1.76,-1.74,8.99,-0.83,-0.7,-0.76,-0.02,0.01,-0.15,6259,2019-04-29 17:34:22:727
-1.76,-1.74,8.99,-0.83,-0.7,-0.76,-0.02,0.01,-0.15,6265,2019-04-29 17:34:22:733
-1.76,-1.74,8.99,-0.83,-0.7,-0.76,-0.02,0.01,-0.15,6269,2019-04-29 17:34:22:737
-1.76,-1.74,8.99,-0.83,-0.7,-0.76,-0.02,0.01,-0.15,6274,2019-04-29 17:34:22:742
-1.76,-1.74,8.99,-0.83,-0.7,-0.76,-0.02,0.01,-0.15,6280,2019-04-29 17:34:22:748
-1.22,-0.26,11.2,-0.36,0.72,1.33,0.04,0.01,-0.11,6285,2019-04-29 17:34:22:753
-1.22,-0.26,11.2,-0.36,0.72,1.33,-0.04,0.0,-0.1,6290,2019-04-29 17:34:22:758
-2.14,-1.8,9.05,0.64,0.19,0.25,-0.04,0.0,-0.1,6294,2019-04-29 17:34:22:762
-2.14,-1.8,9.05,0.64,0.19,0.25,-0.04,0.0,-0.1,6299,2019-04-29 17:34:22:767
-2.14,-1.8,9.05,0.64,0.19,0.25,-0.04,0.0,-0.1,6305,2019-04-29 17:34:22:773
-2.14,-1.8,9.05,0.64,0.19,0.25,-0.04,0.0,-0.1,6309,2019-04-29 17:34:22:777
-2.14,-1.8,9.05,0.64,0.19,0.25,-0.04,0.0,-0.1,6315,2019-04-29 17:34:22:783
-2.14,-1.8,9.05,0.64,0.19,0.25,-0.04,0.0,-0.1,6319,2019-04-29 17:34:22:787
-0.65,0.2,8.94,0.26,1.1,-0.79,-0.02,-0.02,-0.11,6324,2019-04-29 17:34:22:792
-0.65,0.2,8.94,0.26,1.1,-0.79,-0.02,-0.02,-0.11,6330,2019-04-29 17:34:22:798
-2.12,-0.15,8.84,0.48,0.16,0.28,0.04,0.01,-0.07,6335,2019-04-29 17:34:22:803
-2.12,-0.15,8.84,0.48,0.16,0.28,0.04,0.01,-0.07,6340,2019-04-29 17:34:22:808
-2.12,-0.15,8.84,0.48,0.16,0.28,0.04,0.01,-0.07,6345,2019-04-29 17:34:22:813
-2.12,-0.15,8.84,0.48,0.16,0.28,0.04,0.01,-0.07,6350,2019-04-29 17:34:22:818
-0.1,-2.28,11.12,0.94,-1.35,1.27,-0.03,0.05,-0.05,6354,2019-04-29 17:34:22:822
-0.1,-2.28,11.12,0.94,-1.35,1.27,-0.03,0.05,-0.05,6359,2019-04-29 17:34:22:827
-0.1,-2.28,11.12,0.94,-1.35,1.27,-0.03,0.05,-0.05,6365,2019-04-29 17:34:22:833
-0.1,-2.28,11.12,0.94,-1.35,1.27,-0.03,0.05,-0.05,6370,2019-04-29 17:34:22:838
-0.1,-2.28,11.12,0.94,-1.35,1.27,-0.03,0.05,-0.05,6375,2019-04-29 17:34:22:843
-0.1,-2.28,11.12,0.94,-1.35,1.27,-0.03,0.05,-0.05,6379,2019-04-29 17:34:22:847
-1.11,1.13,9.8,0.02,1.92,0.03,-0.02,0.01,-0.06,6386,2019-04-29 17:34:22:854
-1.11,1.13,9.8,0.02,1.92,0.03,-0.02,0.01,-0.06,6390,2019-04-29 17:34:22:858
-1.11,1.13,9.8,0.79,-0.28,-1.05,0.01,-0.02,-0.01,6394,2019-04-29 17:34:22:862
-1.11,1.13,9.8,0.79,-0.28,-1.05,0.01,-0.02,-0.01,6400,2019-04-29 17:34:22:868
-1.11,1.13,9.8,0.79,-0.28,-1.05,0.01,-0.02,-0.01,6405,2019-04-29 17:34:22:873
-1.11,1.13,9.8,0.79,-0.28,-1.05,0.01,-0.02,-0.01,6409,2019-04-29 17:34:22:877
-1.11,1.13,9.8,0.79,-0.28,-1.05,0.01,-0.02,-0.01,6415,2019-04-29 17:34:22:883
-1.11,1.13,9.8,0.79,-0.28,-1.05,0.01,-0.02,-0.01,6419,2019-04-29 17:34:22:887
-1.5,-3.08,11.66,-0.33,-2.21,1.8,-0.04,0.02,0.07,6424,2019-04-29 17:34:22:892
-1.5,-3.08,11.66,-0.33,-2.21,1.8,-0.04,0.02,0.07,6429,2019-04-29 17:34:22:897
-1.5,-3.08,11.66,-0.33,-2.21,1.8,-0.04,0.02,0.07,6435,2019-04-29 17:34:22:903
-1.51,1.09,9.52,-0.33,1.78,-0.21,-0.01,-0.02,0.07,6439,2019-04-29 17:34:22:907
-1.51,1.09,9.52,-0.33,1.78,-0.21,-0.01,-0.02,0.07,6444,2019-04-29 17:34:22:912
-1.51,1.09,9.52,0.47,0.46,0.09,-0.04,-0.01,0.08,6450,2019-04-29 17:34:22:918
-1.51,1.09,9.52,0.47,0.46,0.09,-0.04,-0.01,0.08,6455,2019-04-29 17:34:22:923
-1.51,1.09,9.52,0.47,0.46,0.09,-0.04,-0.01,0.08,6459,2019-04-29 17:34:22:927
-1.51,1.09,9.52,0.47,0.46,0.09,-0.04,-0.01,0.08,6465,2019-04-29 17:34:22:933
-1.51,1.09,9.52,0.47,0.46,0.09,-0.04,-0.01,0.08,6470,2019-04-29 17:34:22:938
-0.73,-1.91,12.19,0.36,-1.34,2.32,-0.06,0.03,0.09,6475,2019-04-29 17:34:22:943
-0.73,-1.91,12.19,0.36,-1.34,2.32,-0.06,0.03,0.09,6480,2019-04-29 17:34:22:948
-0.73,-1.91,12.19,0.36,-1.34,2.32,-0.06,0.03,0.09,6485,2019-04-29 17:34:22:953
-0.73,-1.91,12.19,0.36,-1.34,2.32,-0.06,0.03,0.09,6490,2019-04-29 17:34:22:958
-0.73,-1.91,12.19,0.36,-1.34,2.32,-0.06,0.03,0.09,6495,2019-04-29 17:34:22:963
-0.73,-1.91,12.19,0.36,-1.34,2.32,-0.06,0.03,0.09,6499,2019-04-29 17:34:22:967
-0.65,2.09,10.51,0.47,2.43,0.71,0.04,-0.06,0.11,6504,2019-04-29 17:34:22:972
-0.65,2.09,10.51,0.47,2.43,0.71,0.04,-0.06,0.11,6509,2019-04-29 17:34:22:977
-0.65,2.09,10.51,0.47,2.43,0.71,0.04,-0.06,0.11,6514,2019-04-29 17:34:22:982
-0.65,2.09,10.51,0.47,2.43,0.71,0.04,-0.06,0.11,6519,2019-04-29 17:34:22:987
-0.2,1.68,8.55,0.86,1.92,-1.47,0.0,-0.06,0.12,6524,2019-04-29 17:34:22:992
-0.2,1.68,8.55,0.86,1.92,-1.47,0.0,-0.06,0.12,6531,2019-04-29 17:34:22:999
-0.2,1.68,8.55,0.86,1.92,-1.47,0.0,-0.06,0.12,6536,2019-04-29 17:34:23:004
0.07,-0.83,13.14,1.13,-0.72,3.1,0.0,0.04,0.17,6540,2019-04-29 17:34:23:008
0.07,-0.83,13.14,1.13,-0.72,3.1,0.0,0.04,0.17,6544,2019-04-29 17:34:23:012
0.07,-0.83,13.14,1.13,-0.72,3.1,0.0,0.04,0.17,6549,2019-04-29 17:34:23:017
-0.64,-0.01,8.51,0.33,-0.08,-1.35,0.02,0.0,0.17,6557,2019-04-29 17:34:23:025
-0.64,-0.01,8.51,0.33,-0.08,-1.35,0.02,0.0,0.17,6559,2019-04-29 17:34:23:027
-0.64,-0.01,8.51,0.33,-0.08,-1.35,0.02,0.0,0.17,6565,2019-04-29 17:34:23:033
-0.64,-0.01,8.51,0.33,-0.08,-1.35,0.02,0.0,0.17,6570,2019-04-29 17:34:23:038
0.37,-1.41,9.94,1.17,-1.2,-0.06,-0.07,-0.02,0.12,6575,2019-04-29 17:34:23:043
0.37,-1.41,9.94,1.17,-1.2,-0.06,-0.07,-0.02,0.12,6579,2019-04-29 17:34:23:047
0.37,-1.41,9.94,1.17,-1.2,-0.06,-0.07,-0.02,0.12,6585,2019-04-29 17:34:23:053
0.37,-1.41,9.94,1.17,-1.2,-0.06,-0.07,-0.02,0.12,6590,2019-04-29 17:34:23:058
-0.61,-0.78,10.91,0.1,-0.62,0.86,-0.03,0.0,0.06,6595,2019-04-29 17:34:23:063
-0.61,-0.78,10.91,0.1,-0.62,0.86,-0.03,0.0,0.06,6600,2019-04-29 17:34:23:068
-0.61,-0.78,10.91,0.1,-0.62,0.86,-0.03,0.0,0.06,6605,2019-04-29 17:34:23:073
-0.61,-0.78,10.91,0.1,-0.62,0.86,-0.03,0.0,0.06,6612,2019-04-29 17:34:23:080
-1.1,-0.7,10.99,-0.34,-0.74,0.96,0.0,0.02,0.03,6614,2019-04-29 17:34:23:082
-1.1,-0.7,10.99,-0.34,-0.74,0.96,0.0,0.02,0.03,6619,2019-04-29 17:34:23:087
-1.1,-0.7,10.99,-0.34,-0.74,0.96,0.0,0.02,0.03,6625,2019-04-29 17:34:23:093
-1.1,-0.7,10.99,-0.34,-0.74,0.96,0.0,0.02,0.03,6629,2019-04-29 17:34:23:097
-1.1,-0.7,10.99,-0.34,-0.74,0.96,0.0,0.02,0.03,6634,2019-04-29 17:34:23:102
-0.69,-0.4,8.74,0.01,-0.22,-1.39,0.0,0.01,0.0,6640,2019-04-29 17:34:23:108
-0.69,-0.4,8.74,0.01,-0.22,-1.39,0.0,0.01,0.0,6647,2019-04-29 17:34:23:115
-1.34,-0.76,9.8,0.01,-0.22,-1.39,0.01,0.0,0.0,6654,2019-04-29 17:34:23:122
-1.34,-0.76,9.8,0.01,-0.22,-1.39,0.01,0.0,0.0,6655,2019-04-29 17:34:23:123
-1.34,-0.76,9.8,-0.57,-0.49,-0.33,0.01,0.0,0.0,6662,2019-04-29 17:34:23:130
-1.34,-0.76,9.8,-0.57,-0.49,-0.33,0.01,0.0,0.0,6664,2019-04-29 17:34:23:132
-1.34,-0.76,9.8,-0.57,-0.49,-0.33,0.01,0.0,0.0,6669,2019-04-29 17:34:23:137
-1.34,-0.76,9.8,-0.57,-0.49,-0.33,0.01,0.0,0.0,6675,2019-04-29 17:34:23:143
-1.34,-0.76,9.8,-0.57,-0.49,-0.33,0.01,0.0,0.0,6679,2019-04-29 17:34:23:147
-2.05,0.29,10.72,-1.19,0.43,0.69,0.0,0.0,0.04,6684,2019-04-29 17:34:23:152
-2.05,0.29,10.72,-1.19,0.43,0.69,0.0,0.0,0.04,6690,2019-04-29 17:34:23:158
-2.05,0.29,10.72,-1.19,0.43,0.69,0.0,0.0,0.04,6695,2019-04-29 17:34:23:163
0.01,-1.1,9.7,-0.59,-0.33,-0.81,0.0,0.03,0.03,6699,2019-04-29 17:34:23:167
0.01,-1.1,9.7,-0.59,-0.33,-0.81,0.0,0.03,0.03,6705,2019-04-29 17:34:23:173
0.01,-1.1,9.7,-0.59,-0.33,-0.81,0.0,0.03,0.03,6710,2019-04-29 17:34:23:178
-0.51,-1.97,9.85,0.28,-1.4,-0.08,0.0,0.01,0.04,6715,2019-04-29 17:34:23:183
-0.51,-1.97,9.85,0.28,-1.4,-0.08,0.0,0.01,0.04,6719,2019-04-29 17:34:23:187
-0.51,-1.97,9.85,0.28,-1.4,-0.08,0.0,0.01,0.04,6725,2019-04-29 17:34:23:193
-0.51,-1.97,9.85,0.28,-1.4,-0.08,0.0,0.01,0.04,6730,2019-04-29 17:34:23:198
-1.14,-1.31,9.78,-0.38,-0.63,-0.04,0.0,0.0,0.0,6736,2019-04-29 17:34:23:204
-1.14,-1.31,9.78,-0.38,-0.63,-0.04,0.0,0.0,0.0,6742,2019-04-29 17:34:23:210
-1.14,-1.31,9.78,-0.38,-0.63,-0.04,0.0,0.0,0.0,6744,2019-04-29 17:34:23:212
-1.14,-1.31,9.78,-0.38,-0.63,-0.04,0.0,0.0,0.0,6750,2019-04-29 17:34:23:218
-0.73,-0.43,10.18,0.05,0.35,0.18,0.04,0.01,-0.05,6755,2019-04-29 17:34:23:223
-0.73,-0.43,10.18,0.05,0.35,0.18,0.04,0.01,-0.05,6759,2019-04-29 17:34:23:227
-0.73,-0.43,10.18,0.05,0.35,0.18,0.04,0.01,-0.05,6765,2019-04-29 17:34:23:233
-0.73,-0.43,10.18,0.05,0.35,0.18,0.04,0.01,-0.05,6770,2019-04-29 17:34:23:238
-0.73,-0.43,10.18,0.05,0.35,0.18,0.04,0.01,-0.05,6774,2019-04-29 17:34:23:242
-1.32,-0.46,9.1,-0.42,0.2,-0.86,-0.04,0.0,-0.08,6779,2019-04-29 17:34:23:247
-1.32,-0.46,9.1,-0.42,0.2,-0.86,-0.04,0.0,-0.08,6785,2019-04-29 17:34:23:253
-1.32,-0.46,9.1,-0.42,0.2,-0.86,-0.04,0.0,-0.08,6790,2019-04-29 17:34:23:258
-0.79,-1.89,9.93,0.15,-1.12,0.06,0.01,0.0,-0.1,6794,2019-04-29 17:34:23:262
-0.79,-1.89,9.93,0.15,-1.12,0.06,0.01,0.0,-0.1,6799,2019-04-29 17:34:23:267
-0.79,-1.89,9.93,0.15,-1.12,0.06,0.01,0.0,-0.1,6805,2019-04-29 17:34:23:273
-0.79,-1.89,9.93,0.15,-1.12,0.06,0.01,0.0,-0.1,6810,2019-04-29 17:34:23:278
-0.73,-1.35,11.05,0.15,-1.12,0.06,0.01,0.0,-0.1,6815,2019-04-29 17:34:23:283
-0.73,-1.35,11.05,0.21,-0.49,1.13,0.0,0.02,-0.11,6820,2019-04-29 17:34:23:288
-0.73,-1.35,11.05,0.21,-0.49,1.13,0.0,0.02,-0.11,6825,2019-04-29 17:34:23:293
-0.73,-1.35,11.05,0.21,-0.49,1.13,0.0,0.02,-0.11,6829,2019-04-29 17:34:23:297
-0.73,-1.35,11.05,0.21,-0.49,1.13,0.0,0.02,-0.11,6834,2019-04-29 17:34:23:302
-0.73,-1.35,11.05,0.21,-0.49,1.13,0.0,0.02,-0.11,6839,2019-04-29 17:34:23:307
-1.36,-0.79,9.27,-0.39,0.07,-0.65,0.0,0.03,-0.14,6845,2019-04-29 17:34:23:313
-1.36,-0.79,9.27,-0.39,0.07,-0.65,0.0,0.03,-0.14,6850,2019-04-29 17:34:23:318
-1.36,-0.79,9.27,-0.39,0.07,-0.65,0.0,0.03,-0.14,6855,2019-04-29 17:34:23:323
-0.3,-0.54,9.47,-0.25,-0.86,0.63,0.01,0.02,-0.16,6859,2019-04-29 17:34:23:327
-0.3,-0.54,9.47,-0.25,-0.86,0.63,0.01,0.02,-0.16,6865,2019-04-29 17:34:23:333
-0.3,-0.54,9.47,-0.25,-0.86,0.63,0.01,0.02,-0.16,6869,2019-04-29 17:34:23:337
-1.61,-1.47,9.04,-0.74,-0.38,-0.8,0.01,0.03,-0.21,6874,2019-04-29 17:34:23:342
-1.61,-1.47,9.04,-0.74,-0.38,-0.8,0.01,0.03,-0.21,6879,2019-04-29 17:34:23:347
-1.61,-1.47,9.04,-0.74,-0.38,-0.8,0.01,0.03,-0.21,6885,2019-04-29 17:34:23:353
-1.61,-1.47,9.04,-0.74,-0.38,-0.8,0.01,0.03,-0.21,6889,2019-04-29 17:34:23:357
-1.42,-0.34,9.71,-0.51,0.76,-0.16,0.0,0.01,-0.26,6894,2019-04-29 17:34:23:362
-1.42,-0.34,9.71,-0.51,0.76,-0.16,0.0,0.01,-0.26,6902,2019-04-29 17:34:23:370
-1.42,-0.34,9.71,-0.51,0.76,-0.16,0.0,0.01,-0.26,6904,2019-04-29 17:34:23:372
-1.42,-0.34,9.71,-0.51,0.76,-0.16,0.0,0.01,-0.26,6909,2019-04-29 17:34:23:377
-1.42,-0.34,9.71,-0.51,0.76,-0.16,0.0,0.01,-0.26,6914,2019-04-29 17:34:23:382
-1.42,-0.34,9.71,-0.51,0.76,-0.16,0.0,0.01,-0.26,6919,2019-04-29 17:34:23:387
-1.06,-2.24,9.97,-0.04,-1.04,0.05,-0.01,0.03,-0.28,6925,2019-04-29 17:34:23:393
-1.06,-2.24,9.97,-0.04,-1.04,0.05,-0.01,0.03,-0.28,6929,2019-04-29 17:34:23:397
-1.06,-2.24,9.97,-0.04,-1.04,0.05,0.02,0.06,-0.27,6934,2019-04-29 17:34:23:402
-1.06,-2.24,9.97,-1.2,0.57,-0.91,0.02,0.06,-0.27,6939,2019-04-29 17:34:23:407
-1.06,-2.24,9.97,-1.2,0.57,-0.91,0.02,0.06,-0.27,6945,2019-04-29 17:34:23:413
-1.06,-2.24,9.97,-1.2,0.57,-0.91,0.02,0.06,-0.27,6949,2019-04-29 17:34:23:417
-0.58,0.52,9.34,0.53,1.63,-0.52,0.0,0.03,-0.29,6956,2019-04-29 17:34:23:424
-0.58,0.52,9.34,0.53,1.63,-0.52,0.0,0.03,-0.29,6961,2019-04-29 17:34:23:429
-0.58,0.52,9.34,0.53,1.63,-0.52,0.0,0.03,-0.29,6965,2019-04-29 17:34:23:433
-0.58,0.52,9.34,0.53,1.63,-0.52,0.0,0.03,-0.29,6969,2019-04-29 17:34:23:437
-1.13,-0.39,10.29,0.05,0.72,0.33,0.02,0.0,-0.29,6974,2019-04-29 17:34:23:442
-1.13,-0.39,10.29,0.05,0.72,0.33,0.02,0.0,-0.29,6979,2019-04-29 17:34:23:447
-1.13,-0.39,10.29,0.05,0.72,0.33,0.02,0.0,-0.29,6985,2019-04-29 17:34:23:453
-1.46,-2.34,12.39,-0.17,-1.24,2.33,-0.02,0.03,-0.18,6990,2019-04-29 17:34:23:458
-1.46,-2.34,12.39,-0.17,-1.24,2.33,-0.02,0.03,-0.18,6997,2019-04-29 17:34:23:465
-1.46,-2.34,12.39,-0.17,-1.24,2.33,-0.02,0.03,-0.18,6999,2019-04-29 17:34:23:467
-1.46,-2.34,12.39,-0.17,-1.24,2.33,-0.02,0.03,-0.18,7005,2019-04-29 17:34:23:473
-1.46,-2.34,12.39,-0.17,-1.24,2.33,-0.02,0.03,-0.18,7009,2019-04-29 17:34:23:477
-0.46,0.55,9.66,0.82,1.59,-0.29,0.05,0.03,-0.1,7015,2019-04-29 17:34:23:483
-0.46,0.55,9.66,0.82,1.59,-0.29,0.05,0.03,-0.1,7020,2019-04-29 17:34:23:488
-0.46,0.55,9.66,0.82,1.59,-0.29,0.05,0.03,-0.1,7025,2019-04-29 17:34:23:493
-0.46,0.55,9.66,0.82,1.59,-0.29,0.05,0.03,-0.1,7029,2019-04-29 17:34:23:497
-0.46,0.55,9.66,0.82,1.59,-0.29,0.05,0.03,-0.1,7035,2019-04-29 17:34:23:503
-0.46,0.55,9.66,0.82,1.59,-0.29,0.05,0.03,-0.1,7039,2019-04-29 17:34:23:507
-1.81,-0.64,7.66,-0.49,0.38,-2.27,0.07,-0.04,-0.06,7044,2019-04-29 17:34:23:512
-1.81,-0.64,7.66,-0.49,0.38,-2.27,0.07,-0.04,-0.06,7049,2019-04-29 17:34:23:517
-1.81,-0.64,7.66,-0.49,0.38,-2.27,0.07,-0.04,-0.06,7055,2019-04-29 17:34:23:523
-1.81,-0.64,7.66,-0.49,0.38,-2.27,0.07,-0.04,-0.06,7059,2019-04-29 17:34:23:527
-3.5,-1.81,10.4,-2.07,-0.83,0.48,-0.01,-0.02,0.03,7065,2019-04-29 17:34:23:533
-3.5,-1.81,10.4,-2.07,-0.83,0.48,-0.01,-0.02,0.03,7069,2019-04-29 17:34:23:537
-3.5,-1.81,10.4,-2.07,-0.83,0.48,0.0,-0.04,0.13,7074,2019-04-29 17:34:23:542
-3.5,-1.81,10.4,-2.07,-0.83,0.48,0.0,-0.04,0.13,7080,2019-04-29 17:34:23:548
-3.5,-1.81,10.4,-2.07,-0.83,0.48,0.0,-0.04,0.13,7085,2019-04-29 17:34:23:553
-3.5,-1.81,10.4,-2.07,-0.83,0.48,0.0,-0.04,0.13,7089,2019-04-29 17:34:23:557
-1.52,-1.32,9.3,-0.25,-0.27,-0.56,0.0,-0.02,0.04,7094,2019-04-29 17:34:23:562
-1.52,-1.32,9.3,-0.25,-0.27,-0.56,0.0,-0.02,0.04,7099,2019-04-29 17:34:23:567
-1.52,-1.32,9.3,-0.25,-0.27,-0.56,0.0,-0.02,0.04,7104,2019-04-29 17:34:23:572
-1.52,-1.32,9.3,-0.25,-0.27,-0.56,0.0,-0.02,0.04,7109,2019-04-29 17:34:23:577
-1.52,-1.32,9.3,-0.25,-0.27,-0.56,0.0,-0.02,0.04,7115,2019-04-29 17:34:23:583
-1.52,-1.32,9.3,-0.25,-0.27,-0.56,0.0,-0.02,0.04,7120,2019-04-29 17:34:23:588
-1.52,-1.32,9.3,-0.25,-0.27,-0.56,0.0,-0.02,0.04,7124,2019-04-29 17:34:23:592
-0.84,-1.91,11.02,0.29,-0.95,1.09,-0.02,0.0,0.03,7129,2019-04-29 17:34:23:597
-0.84,-1.91,11.02,0.29,-0.95,1.09,-0.02,0.0,0.03,7135,2019-04-29 17:34:23:603
-0.84,-1.91,11.02,0.29,-0.95,1.09,-0.02,0.0,0.03,7139,2019-04-29 17:34:23:607
-0.84,-1.91,11.02,0.29,-0.95,1.09,-0.02,0.0,0.03,7146,2019-04-29 17:34:23:614
-0.84,-1.91,11.02,0.29,-0.95,1.09,-0.02,0.0,0.03,7149,2019-04-29 17:34:23:617
-0.45,-0.05,8.89,0.56,1.07,-0.95,0.0,0.0,-0.16,7155,2019-04-29 17:34:23:623
-0.45,-0.05,8.89,0.56,1.07,-0.95,0.0,0.0,-0.16,7160,2019-04-29 17:34:23:628
-0.45,-0.05,8.89,0.56,1.07,-0.95,0.0,0.0,-0.16,7165,2019-04-29 17:34:23:633
-0.45,-0.05,8.89,0.56,1.07,-0.95,0.0,0.0,-0.16,7170,2019-04-29 17:34:23:638
-0.45,-0.05,8.89,0.56,1.07,-0.95,0.0,0.0,-0.16,7175,2019-04-29 17:34:23:643
-0.45,-0.05,8.89,0.56,1.07,-0.95,0.0,0.0,-0.16,7180,2019-04-29 17:34:23:648
1.45,-0.98,12.13,2.31,0.07,2.35,0.0,0.05,-0.21,7187,2019-04-29 17:34:23:655
1.45,-0.98,12.13,2.31,0.07,2.35,0.0,0.05,-0.21,7190,2019-04-29 17:34:23:658
1.45,-0.98,12.13,2.31,0.07,2.35,0.0,0.05,-0.21,7194,2019-04-29 17:34:23:662
1.45,-0.98,12.13,2.31,0.07,2.35,0.0,0.05,-0.21,7202,2019-04-29 17:34:23:670
1.45,-0.98,12.13,2.31,0.07,2.35,0.0,0.05,-0.21,7205,2019-04-29 17:34:23:673
0.95,0.94,9.21,1.71,1.85,-0.38,-0.01,0.05,-0.3,7211,2019-04-29 17:34:23:679
0.95,0.94,9.21,1.71,1.85,-0.38,-0.01,0.05,-0.3,7214,2019-04-29 17:34:23:682
0.95,0.94,9.21,1.71,1.85,-0.38,-0.01,0.05,-0.3,7219,2019-04-29 17:34:23:687
0.99,-0.06,9.24,1.75,0.93,-0.48,-0.02,0.05,-0.35,7224,2019-04-29 17:34:23:692
0.99,-0.06,9.24,1.75,0.93,-0.48,-0.02,0.05,-0.35,7230,2019-04-29 17:34:23:698
0.99,-0.06,9.24,1.75,0.93,-0.48,-0.02,0.05,-0.35,7234,2019-04-29 17:34:23:702
0.99,-0.06,9.24,1.75,0.93,-0.48,-0.02,0.05,-0.35,7241,2019-04-29 17:34:23:709
0.99,-0.06,9.24,1.75,0.93,-0.48,-0.02,0.05,-0.35,7244,2019-04-29 17:34:23:712
0.31,-0.39,11.41,1.1,0.53,1.63,0.04,0.07,-0.34,7250,2019-04-29 17:34:23:718
0.31,-0.39,11.41,1.1,0.53,1.63,0.04,0.07,-0.34,7255,2019-04-29 17:34:23:723
0.31,-0.39,11.41,1.1,0.53,1.63,0.04,0.07,-0.34,7259,2019-04-29 17:34:23:727
0.31,-0.39,11.41,1.1,0.53,1.63,0.04,0.07,-0.34,7265,2019-04-29 17:34:23:733
0.31,-0.39,11.41,1.1,0.53,1.63,0.04,0.07,-0.34,7269,2019-04-29 17:34:23:737
0.31,-0.39,11.41,1.1,0.53,1.63,0.04,0.07,-0.34,7274,2019-04-29 17:34:23:742
0.31,-0.39,11.41,1.1,0.53,1.63,0.04,0.07,-0.34,7279,2019-04-29 17:34:23:747
-2.43,-2.31,9.16,-1.46,-1.28,-0.65,-0.09,0.04,-0.21,7284,2019-04-29 17:34:23:752
-2.43,-2.31,9.16,-1.46,-1.28,-0.65,-0.09,0.04,-0.21,7289,2019-04-29 17:34:23:757
-2.43,-2.31,9.16,-1.46,-1.28,-0.65,-0.07,0.06,-0.29,7294,2019-04-29 17:34:23:762
-2.43,-2.31,9.16,-1.46,-1.28,-0.65,-0.07,0.06,-0.29,7299,2019-04-29 17:34:23:767
-2.43,-2.31,9.16,-1.46,-1.28,-0.65,-0.07,0.06,-0.29,7304,2019-04-29 17:34:23:772
-2.43,-2.31,9.16,-1.46,-1.28,-0.65,-0.07,0.06,-0.29,7309,2019-04-29 17:34:23:777
-2.43,-2.31,9.16,-1.46,-1.28,-0.65,-0.07,0.06,-0.29,7314,2019-04-29 17:34:23:782
-2.43,-2.31,9.16,-1.46,-1.28,-0.65,-0.07,0.06,-0.29,7319,2019-04-29 17:34:23:787
-4.52,0.85,7.9,-3.31,1.75,-1.79,-0.02,-0.02,-0.15,7324,2019-04-29 17:34:23:792
-4.52,0.85,7.9,-3.31,1.75,-1.79,-0.02,-0.02,-0.15,7332,2019-04-29 17:34:23:800
-4.52,0.85,7.9,-3.31,1.75,-1.79,-0.02,-0.02,-0.15,7334,2019-04-29 17:34:23:802
-4.52,0.85,7.9,-3.31,1.75,-1.79,-0.02,-0.02,-0.15,7339,2019-04-29 17:34:23:807
-1.73,-0.97,11.06,-0.43,-0.08,1.09,-0.11,-0.06,-0.15,7345,2019-04-29 17:34:23:813
-1.73,-0.97,11.06,-0.43,-0.08,1.09,-0.11,-0.06,-0.15,7349,2019-04-29 17:34:23:817
-0.11,-0.64,10.81,1.25,0.16,0.88,0.0,0.01,-0.11,7355,2019-04-29 17:34:23:823
-0.11,-0.64,10.81,1.25,0.16,0.88,0.0,0.01,-0.11,7359,2019-04-29 17:34:23:827
-0.11,-0.64,10.81,1.25,0.16,0.88,0.0,0.01,-0.11,7364,2019-04-29 17:34:23:832
-0.11,-0.64,10.81,1.25,0.16,0.88,0.0,0.01,-0.11,7369,2019-04-29 17:34:23:837
-0.11,-0.64,10.81,1.25,0.16,0.88,0.0,0.01,-0.11,7374,2019-04-29 17:34:23:842
-0.11,-0.64,10.81,1.25,0.16,0.88,0.0,0.01,-0.11,7379,2019-04-29 17:34:23:847
0.7,1.85,10.2,2.12,2.62,0.32,-0.08,0.03,-0.08,7385,2019-04-29 17:34:23:853
0.7,1.85,10.2,2.12,2.62,0.32,-0.08,0.03,-0.08,7391,2019-04-29 17:34:23:859
0.7,1.85,10.2,2.12,2.62,0.32,-0.02,0.02,-0.08,7394,2019-04-29 17:34:23:862
0.7,1.85,10.2,2.12,2.62,0.32,-0.02,0.02,-0.08,7399,2019-04-29 17:34:23:867
0.7,1.85,10.2,2.12,2.62,0.32,-0.02,0.02,-0.08,7405,2019-04-29 17:34:23:873
0.7,1.85,10.2,2.12,2.62,0.32,-0.02,0.02,-0.08,7411,2019-04-29 17:34:23:879
0.7,1.85,10.2,2.12,2.62,0.32,-0.02,0.02,-0.08,7415,2019-04-29 17:34:23:883
0.7,1.85,10.2,2.12,2.62,0.32,-0.02,0.02,-0.08,7419,2019-04-29 17:34:23:887
-0.21,0.01,9.48,1.23,0.62,-0.36,0.05,0.01,-0.05,7424,2019-04-29 17:34:23:892
-0.21,0.01,9.48,1.23,0.62,-0.36,0.05,0.01,-0.05,7430,2019-04-29 17:34:23:898
-0.21,0.01,9.48,1.23,0.62,-0.36,-0.07,0.02,0.0,7435,2019-04-29 17:34:23:903
-0.21,0.01,9.48,1.23,0.62,-0.36,-0.07,0.02,0.0,7440,2019-04-29 17:34:23:908
-0.21,0.01,9.48,1.23,0.62,-0.36,-0.07,0.02,0.0,7445,2019-04-29 17:34:23:913
-0.21,0.01,9.48,1.23,0.62,-0.36,-0.07,0.02,0.0,7450,2019-04-29 17:34:23:918
-0.46,0.22,11.36,0.84,0.52,1.43,-0.04,0.0,0.06,7454,2019-04-29 17:34:23:922
-0.46,0.22,11.36,0.84,0.52,1.43,-0.04,0.0,0.06,7459,2019-04-29 17:34:23:927
-0.46,0.22,11.36,0.84,0.52,1.43,-0.04,0.0,0.06,7464,2019-04-29 17:34:23:932
-0.46,0.22,11.36,0.84,0.52,1.43,-0.04,0.0,0.06,7471,2019-04-29 17:34:23:939
-0.46,0.22,11.36,0.84,0.52,1.43,-0.04,0.0,0.06,7474,2019-04-29 17:34:23:942
-0.46,0.22,11.36,0.84,0.52,1.43,-0.04,0.0,0.06,7479,2019-04-29 17:34:23:947
-0.31,1.41,9.18,0.91,1.49,-0.75,0.0,-0.01,0.07,7485,2019-04-29 17:34:23:953
-0.31,1.41,9.18,0.91,1.49,-0.75,0.0,-0.01,0.07,7491,2019-04-29 17:34:23:959
-0.31,1.41,9.18,0.91,1.49,-0.75,0.0,-0.01,0.07,7495,2019-04-29 17:34:23:963
-0.31,1.41,9.18,0.91,1.49,-0.75,0.0,-0.01,0.07,7499,2019-04-29 17:34:23:967
-1.19,-0.29,11.65,0.02,-0.35,1.66,-0.02,-0.02,0.1,7509,2019-04-29 17:34:23:977
-1.19,-0.29,11.65,0.02,-0.35,1.66,-0.02,-0.02,0.1,7510,2019-04-29 17:34:23:978
-1.19,-0.29,11.65,1.46,-0.45,-0.32,0.03,-0.03,0.16,7515,2019-04-29 17:34:23:983
-1.19,-0.29,11.65,1.46,-0.45,-0.32,0.03,-0.03,0.16,7519,2019-04-29 17:34:23:987
-1.19,-0.29,11.65,1.46,-0.45,-0.32,0.03,-0.03,0.16,7525,2019-04-29 17:34:23:993
-1.19,-0.29,11.65,1.46,-0.45,-0.32,0.03,-0.03,0.16,7529,2019-04-29 17:34:23:997
-1.08,1.36,12.34,-0.04,1.21,2.42,-0.04,-0.02,0.2,7535,2019-04-29 17:34:24:003
-1.08,1.36,12.34,-0.04,1.21,2.42,-0.04,-0.02,0.2,7540,2019-04-29 17:34:24:008
-1.08,1.36,12.34,-0.04,1.21,2.42,-0.04,-0.02,0.2,7545,2019-04-29 17:34:24:013
-1.08,1.36,12.34,-0.04,1.21,2.42,-0.04,-0.02,0.2,7552,2019-04-29 17:34:24:020
-1.08,1.36,12.34,-0.04,1.21,2.42,-0.04,-0.02,0.2,7555,2019-04-29 17:34:24:023
-1.08,1.36,12.34,-0.04,1.21,2.42,-0.04,-0.02,0.2,7559,2019-04-29 17:34:24:027
-0.36,1.93,9.52,0.61,1.53,-0.36,0.01,-0.04,0.19,7564,2019-04-29 17:34:24:032
-0.36,1.93,9.52,0.61,1.53,-0.36,0.01,-0.04,0.19,7569,2019-04-29 17:34:24:037
-0.36,1.93,9.52,0.61,1.53,-0.36,0.01,-0.04,0.19,7575,2019-04-29 17:34:24:043
-0.36,1.93,9.52,0.61,1.53,-0.36,0.01,-0.04,0.19,7579,2019-04-29 17:34:24:047
-0.17,-0.04,7.57,0.8,-0.39,-2.29,0.0,-0.03,0.19,7584,2019-04-29 17:34:24:052
-0.17,-0.04,7.57,0.8,-0.39,-2.29,0.0,-0.03,0.19,7589,2019-04-29 17:34:24:057
-0.25,-0.52,11.48,0.65,-0.7,1.64,0.0,-0.03,0.18,7597,2019-04-29 17:34:24:065
-0.25,-0.52,11.48,0.65,-0.7,1.64,0.0,-0.03,0.18,7599,2019-04-29 17:34:24:067
-0.25,-0.52,11.48,0.65,-0.7,1.64,0.0,-0.03,0.18,7604,2019-04-29 17:34:24:072
-0.25,-0.52,11.48,0.65,-0.7,1.64,0.0,-0.03,0.18,7609,2019-04-29 17:34:24:077
-0.92,-0.95,9.29,-0.13,-1.11,-0.66,0.0,-0.01,0.13,7614,2019-04-29 17:34:24:082
-0.92,-0.95,9.29,-0.13,-1.11,-0.66,0.0,-0.01,0.13,7620,2019-04-29 17:34:24:088
-0.92,-0.95,9.29,-0.13,-1.11,-0.66,0.0,-0.01,0.13,7625,2019-04-29 17:34:24:093
-0.92,-0.95,9.29,-0.13,-1.11,-0.66,0.0,-0.01,0.13,7630,2019-04-29 17:34:24:098
-0.89,-2.42,10.21,-0.19,-2.29,0.38,0.02,0.0,0.1,7637,2019-04-29 17:34:24:105
-0.89,-2.42,10.21,-0.19,-2.29,0.38,0.02,0.0,0.1,7639,2019-04-29 17:34:24:107
-0.89,-2.42,10.21,-0.19,-2.29,0.38,0.02,0.0,0.1,7645,2019-04-29 17:34:24:113
-0.89,-2.42,10.21,-0.19,-2.29,0.38,0.02,0.0,0.1,7649,2019-04-29 17:34:24:117
-0.89,-2.42,10.21,-0.19,-2.29,0.38,0.02,0.0,0.1,7655,2019-04-29 17:34:24:123
-0.89,-2.42,10.21,-0.19,-2.29,0.38,0.02,0.0,0.1,7660,2019-04-29 17:34:24:128
0.13,1.31,11.52,0.77,1.42,1.62,-0.02,0.03,0.04,7665,2019-04-29 17:34:24:133
0.13,1.31,11.52,0.77,1.42,1.62,-0.02,0.03,0.04,7669,2019-04-29 17:34:24:137
0.13,1.31,11.52,0.77,1.42,1.62,-0.02,0.03,0.04,7675,2019-04-29 17:34:24:143
0.13,1.31,11.52,0.77,1.42,1.62,-0.02,0.03,0.04,7680,2019-04-29 17:34:24:148
-0.28,0.48,10.31,0.41,0.61,0.41,-0.02,0.0,0.0,7685,2019-04-29 17:34:24:153
-0.28,0.48,10.31,0.41,0.61,0.41,-0.02,0.0,0.0,7689,2019-04-29 17:34:24:157
-0.28,0.48,10.31,0.41,0.61,0.41,-0.02,0.0,0.0,7696,2019-04-29 17:34:24:164
-0.28,0.48,10.31,0.41,0.61,0.41,-0.02,0.0,0.0,7699,2019-04-29 17:34:24:167
-0.46,-0.16,9.98,0.22,0.02,0.21,0.02,0.0,0.0,7704,2019-04-29 17:34:24:172
0.15,-0.93,10.83,0.22,0.02,0.21,-0.09,0.01,0.03,7712,2019-04-29 17:34:24:180
0.15,-0.93,10.83,-0.18,0.17,-0.99,-0.09,0.01,0.03,7714,2019-04-29 17:34:24:182
0.15,-0.93,10.83,-0.18,0.17,-0.99,-0.09,0.01,0.03,7720,2019-04-29 17:34:24:188
0.15,-0.93,10.83,-0.18,0.17,-0.99,-0.09,0.01,0.03,7725,2019-04-29 17:34:24:193
0.15,-0.93,10.83,-0.18,0.17,-0.99,-0.09,0.01,0.03,7730,2019-04-29 17:34:24:198
-0.38,-0.18,9.6,0.3,0.15,-0.22,0.03,0.0,0.0,7744,2019-04-29 17:34:24:212
-0.38,-0.18,9.6,0.3,0.15,-0.22,0.03,0.0,0.0,7746,2019-04-29 17:34:24:214
-0.38,-0.18,9.6,0.3,0.15,-0.22,0.03,0.0,0.0,7746,2019-04-29 17:34:24:214
0.2,-1.07,11.78,0.85,-0.47,1.81,0.0,-0.02,-0.01,7759,2019-04-29 17:34:24:227
0.2,-1.07,11.78,0.85,-0.47,1.81,0.0,-0.02,-0.01,7760,2019-04-29 17:34:24:228
0.2,-1.07,11.78,0.85,-0.47,1.81,0.0,-0.02,-0.01,7760,2019-04-29 17:34:24:228
-0.04,-0.62,10.41,0.62,0.0,0.44,-0.05,0.02,0.0,7773,2019-04-29 17:34:24:241
-0.04,-0.62,10.41,0.62,0.0,0.44,-0.05,0.02,0.0,7774,2019-04-29 17:34:24:242
-0.04,-0.62,10.41,0.62,0.0,0.44,-0.05,0.02,0.0,7775,2019-04-29 17:34:24:243
-0.04,-0.62,10.41,0.62,0.0,0.44,-0.05,0.02,0.0,7779,2019-04-29 17:34:24:247
-0.04,-0.62,10.41,0.62,0.0,0.44,-0.05,0.02,0.0,7784,2019-04-29 17:34:24:252
-0.04,-0.62,10.41,0.62,0.0,0.44,-0.05,0.02,0.0,7790,2019-04-29 17:34:24:258
-0.04,-0.62,10.41,0.62,0.0,0.44,-0.05,0.02,0.0,7794,2019-04-29 17:34:24:262
-0.04,-0.62,10.41,0.62,0.0,0.44,-0.05,0.02,0.0,7800,2019-04-29 17:34:24:268
-0.79,0.15,7.92,-0.02,0.78,-1.95,0.03,0.02,-0.04,7806,2019-04-29 17:34:24:274
-0.79,0.15,7.92,-0.02,0.78,-1.95,0.03,0.02,-0.04,7810,2019-04-29 17:34:24:278
-0.79,0.15,7.92,-0.02,0.78,-1.95,0.03,0.02,-0.04,7815,2019-04-29 17:34:24:283
-1.07,-1.0,9.72,-0.24,-0.27,-0.15,0.01,-0.02,-0.1,7820,2019-04-29 17:34:24:288
-1.07,-1.0,9.72,-0.24,-0.27,-0.15,0.01,-0.02,-0.1,7825,2019-04-29 17:34:24:293
-1.07,-1.0,9.72,-0.24,-0.27,-0.15,0.01,-0.02,-0.1,7829,2019-04-29 17:34:24:297
-1.18,-1.76,10.34,-0.28,-1.15,0.37,-0.02,0.02,-0.13,7835,2019-04-29 17:34:24:303
-1.18,-1.76,10.34,-0.28,-1.15,0.37,-0.02,0.02,-0.13,7840,2019-04-29 17:34:24:308
-1.18,-1.76,10.34,-0.28,-1.15,0.37,-0.02,0.02,-0.13,7844,2019-04-29 17:34:24:312
-1.18,-1.76,10.34,-0.28,-1.15,0.37,-0.02,0.02,-0.13,7850,2019-04-29 17:34:24:318
